timestamp,angular_velocity.x,angular_velocity.y,angular_velocity.z,linear_acceleration.x,linear_acceleration.y,linear_acceleration.z
0.8495488166809082,-0.0009171700803562,-0.0017490247264504,-0.0021603889763355,0.4770306944847107,0.3024760186672223,9.835698127746582
0.8535168170928955,0.001436170306988,-0.0008908323943614,0.0009420746937394,0.4672587811946869,0.3092336952686322,9.855616569519045
0.8576579093933105,0.0001427721581421,-0.0014253188855946,0.0005700746551156,0.4746254682540893,0.311639577150346,9.87399673461914
0.8615317344665527,0.0020338653121143,8.299481123685827e-05,-0.0007931282743811,0.4721031486988067,0.3106681406497967,9.859150886535645
0.8655107021331787,0.0005552263464778,-0.0006765853613615,0.0001258766278624,0.4730255007743835,0.3172915577888501,9.83055305480957
0.8696327209472656,-0.0003413369704503,-0.0005662087351083,0.0017541581764817,0.4716240167617798,0.3162667453289044,9.80533218383789
0.8735167980194092,0.002066814340651,-0.0006737881340086,0.0006007123738527,0.4558337926864624,0.2985747754573834,9.818851470947266
0.8775274753570557,-0.0012704926775768,0.0006008557975292,-0.000342583283782,0.4634174704551697,0.2875738441944134,9.816682815551758
0.8815066814422607,-0.0008305208757519,-0.0022650081664323,0.0001719715073704,0.4704613983631134,0.2861754298210156,9.839204788208008
0.8855068683624268,-0.0014399937354028,-0.0004597892984747,0.0008342089131474,0.4730412065982818,0.298236131668092,9.870241165161133
0.8896279335021973,-0.0020661414600908,-0.0013123895041644,0.0011817812919616,0.4662697315216064,0.2991587817668927,9.855195999145508
0.8936028480529785,0.0005009496817365,-0.0005643083713948,0.0015130308456718,0.4722766280174255,0.3029448091983807,9.835871696472168
0.8975067138671875,0.0007755703409202,-0.0007092910818755,0.0003656148910522,0.4907778203487396,0.3086713552474988,9.820412635803224
0.9016287326812744,-0.0003608447441365,0.0002427408471703,-0.0015108892694115,0.4691987037658691,0.3076701760292065,9.806878089904783
0.9055297374725342,-0.0001229012268595,-0.0014580353163182,-0.0008760225027799,0.473604142665863,0.292795926332475,9.79580307006836
0.9095067977905273,0.0003529672976583,-0.0013495585881173,0.0004903143271803,0.4827079474925995,0.2789739668369305,9.822227478027344
0.9175057411193848,0.0015894374810159,0.0016302531585097,-0.0006307689473032,0.4665988087654114,0.279000908136369,9.826640129089355
0.9215128421783447,-0.0006967957015149,3.843288868665704e-05,0.0007322607561945,0.4664677381515503,0.2828730940818799,9.837676048278809
0.925666093826294,-0.0024357456713914,-7.043499499559402e-05,-5.168654024600982e-05,0.490147978067398,0.290027827024461,9.829567909240724
0.929527759552002,-0.001553526497446,0.0002471543848514,0.0006619915366172,0.4806171357631683,0.3010596036911023,9.830840110778809
0.9375097751617432,0.0013457026798278,-0.0012341542169451,0.0015156189911067,0.4923279285430908,0.2943216264247906,9.824711799621582
0.9415059089660645,0.0013775546103715,-0.0009141913615167,0.0022597103379666,0.4888266921043396,0.2813948690891278,9.819622993469238
0.945624828338623,0.0010876745218411,-0.000706622377038,0.0001424849033355,0.4717327356338501,0.2914887666702282,9.836468696594238
0.9535167217254639,7.918919436633587e-06,-0.0007113418541848,-0.0002488121390342,0.4806925654411316,0.2977200448513043,9.845633506774902
0.9615187644958496,-0.0016248107422143,0.0017388872802257,-0.0011522890999913,0.4818138778209686,0.2885595858097088,9.824183464050291
0.9655060768127441,0.0020819464698433,-0.002404237166047,0.0012758933007717,0.4911734163761139,0.3047987222671521,9.805177688598633
0.9735147953033447,-0.0007764026522636,0.00216980651021,0.0016895602457225,0.4704376459121704,0.3062980175018323,9.827383041381836
0.9775457382202148,0.0005187735660001,0.0016417605802416,0.0020702593028545,0.4746286571025848,0.3024542033672345,9.823909759521484
0.9855058193206787,0.0004805643693543,-0.0010223072022199,0.0010144719853997,0.478577584028244,0.3033834993839276,9.814226150512695
0.9895498752593994,-0.0011410479201003,-6.142072379589077e-05,0.0003230292350053,0.4760363101959228,0.304830461740495,9.823384284973145
0.9936327934265137,0.0009845893364399,0.0007839081808924,-7.508974522352228e-05,0.4840490818023681,0.3005725145339978,9.83127498626709
0.9976367950439453,0.0012006855104118,0.0003598472103476,0.0004514167085289,0.4785542488098144,0.3049286603927624,9.852910995483398
1.0015227794647217,-0.0002526198804844,0.0011020274832844,-0.0014147786423563,0.4836461544036865,0.3048761487007153,9.834545135498049
1.0055158138275146,-3.876019036397338e-05,-0.0013460018672049,0.0013553854078054,0.4914275407791137,0.305743068456651,9.798922538757324
1.0095148086547852,-0.0008034227066673,-0.0010247039608657,0.0008472893387079,0.4897473156452179,0.3105062246322644,9.792317390441896
1.0135161876678467,-0.0002755575405899,4.282221198081981e-05,0.0008236644789576,0.482252687215805,0.3014776110649121,9.809826850891112
1.0175189971923828,0.0005427047144621,-0.000809843186289,-0.0001632627099752,0.4808417558670044,0.3004447519779217,9.797411918640137
1.021515130996704,0.0001066692639142,-0.0003895424306392,-0.0004664082080125,0.4754625260829925,0.2976883351802838,9.833460807800291
1.02553129196167,-0.0010358405997976,-0.0010284674353897,-0.0024485690519213,0.4749585688114166,0.3039177358150494,9.845908164978027
1.0303170680999756,0.0005736930179409,-0.0008117938414216,-0.0008558174595236,0.4798941016197204,0.3016239106655133,9.815329551696776
1.034325122833252,-0.0011154158273711,-0.0012423531152307,-0.0018046144396066,0.4829570353031158,0.3086529970169079,9.815969467163086
1.0383210182189941,0.0009470020304434,-0.0012357663363218,-0.0007133623585104,0.4780074954032898,0.3101631700992596,9.837611198425291
1.042323112487793,0.0023911823518574,-0.001129800453782,0.0009416164830327,0.4769940972328186,0.2996225953102124,9.835806846618652
1.0503532886505127,0.0005845620762556,4.261359572410594e-05,0.000896917656064,0.4697818160057068,0.2924256026744855,9.835616111755373
1.0583291053771973,0.0004393123672343,-0.0026156790554523,-4.82741743326184e-05,0.4804120063781738,0.2967663407325757,9.83756160736084
1.062319278717041,-0.0003808531619142,-0.0001641232520341,0.0005132611840963,0.4787399172782898,0.2857847511768353,9.83140754699707
1.0703201293945312,0.0009597458411008,0.0002541476860642,-0.0003949841484427,0.4691494107246399,0.3024635314941418,9.830830574035645
1.0743181705474854,-0.0002468565944582,0.0014330325648188,0.0014551193453371,0.4771697223186493,0.3058519363403332,9.841034889221191
1.0783360004425049,-0.0017514766659587,4.80115413665773e-05,0.0011979583650827,0.4892843663692474,0.3010247349739087,9.818641662597656
1.0823180675506592,-0.0003254053299315,-0.0008108313195407,-0.0004494413733482,0.4783456027507782,0.2952915728092206,9.832356452941896
1.0863139629364014,0.0021442752331495,-0.0014478093944489,-0.0001169480383396,0.4712428152561188,0.3168770074844372,9.84836769104004
1.0943140983581543,-0.0006086145876906,-0.0005936045199632,0.0004087518900632,0.4713254272937774,0.3029265105724347,9.824552536010742
1.0984480381011963,-0.0024486519396305,-0.0016624289564788,-0.0004787826910614,0.4811165332794189,0.3178145885467541,9.84415340423584
1.1023740768432617,6.143498467281461e-05,-0.0006958306767046,0.000920582562685,0.4830034971237182,0.3082307875156415,9.843177795410156
1.1063261032104492,-0.0011567800538614,-0.0004895310848951,0.0001083659008145,0.4831291735172272,0.312535732984544,9.833168029785156
1.1143512725830078,-0.0018099719891324,-0.0028298958204686,-0.0003945734351873,0.4629754424095154,0.312992185354234,9.831990242004396
1.1183192729949951,0.0006438451819121,-0.0003792503848671,-0.0003836015239357,0.4610875248908996,0.3072858452796948,9.845925331115724
1.1224443912506104,-0.0013177881482988,-0.0010151206515729,0.0013943659141659,0.4640742838382721,0.3125584721565259,9.849150657653809
1.1303484439849854,-0.0004556810308713,-6.600562483072297e-05,-0.0013026874512434,0.4939047694206238,0.3000448644161236,9.814642906188965
1.1343324184417725,0.0010476524475961,-0.00134430360049,-0.0009288201108574,0.4740064144134521,0.295709401369096,9.82019329071045
1.1383192539215088,0.0010456745512783,-0.001539556775242,0.0019421749748289,0.4755563139915466,0.2995975315570843,9.835503578186035
1.1423144340515137,-0.0005992464721202,0.0010112477466464,0.000605521723628,0.4815939664840698,0.2948243618011487,9.84384536743164
1.1503636837005615,0.0011187945492565,0.0001662503927946,0.0010750880464911,0.4762856364250183,0.3047865927219403,9.81680965423584
1.1543142795562744,0.0005696149892173,0.0003724554553627,0.0004590395838022,0.4671269655227661,0.2981244027614605,9.814324378967283
1.158318281173706,-0.0009714247426018,4.878919571638098e-05,-0.0007608952000737,0.468001514673233,0.2937498688697827,9.799072265625
1.162323236465454,-0.0002200297021772,0.0022879112511873,-0.0006903009489178,0.4575589597225189,0.299001991748811,9.788415908813477
1.1663353443145752,-0.0002040332183241,-0.0004719318822026,-0.0002579577267169,0.4654603898525238,0.2927992939949048,9.794321060180664
1.1703283786773682,0.0001630436745472,0.0005872463807463,-0.0018755597993731,0.4623720347881317,0.3067062497138989,9.802062034606934
1.174314260482788,-0.0005982780712656,0.0005890689790248,0.0006056120619177,0.4689143300056457,0.3215499222278607,9.810856819152832
1.1783292293548584,-0.0020192537922412,-0.0011021411046385,0.0021548685617744,0.4707627296447754,0.3168386220932019,9.822203636169434
1.182314395904541,-0.0016409704694524,-0.0004770820960402,0.0013962001539766,0.4761318862438202,0.3091523945331585,9.824996948242188
1.1864330768585205,7.290428038686514e-05,0.0017609810456633,0.0015388424508273,0.4743444919586181,0.3120236694812787,9.828371047973633
1.1903152465820312,-0.0019830062519758,0.0004808939993381,0.0006569493561983,0.4822558462619781,0.30776545405388,9.848138809204102
1.1943142414093018,-0.0004968738066963,0.0008009318262338,0.0004988070577383,0.4805167019367218,0.2981362342834485,9.826257705688477
1.1984472274780273,-0.0018865840975195,0.0017557824030518,0.0003320546820759,0.4697630703449249,0.3028677105903637,9.807549476623535
1.2023510932922363,-0.001395255792886,0.0001600049436092,-0.0007483344525098,0.4639701843261719,0.3033498227596295,9.806318283081056
1.2063243389129639,-0.0004508740385062,0.0006920918822288,-0.0012080101296305,0.4742085337638855,0.3004316091537488,9.798303604125977
1.214329481124878,-0.0008151592919602,0.0017505539581179,-0.0023690508678555,0.4690535962581634,0.3019346594810498,9.814723014831545
1.2183175086975098,0.0002257440355606,0.0011158725246787,-6.957817822694792e-05,0.4819116592407226,0.2938369214534772,9.83860969543457
1.22233247756958,0.0006510722450911,0.0009086271747946,-7.958151400089275e-05,0.4780355095863342,0.3029817640781415,9.851594924926758
1.2263216972351074,0.0003423636662773,-0.0002691391855478,0.0001515466719865,0.4886160790920257,0.3015462756156933,9.85131549835205
1.2303225994110107,0.0016191760078072,0.00059499964118,0.0003025066107511,0.4875749051570892,0.2971869707107556,9.825000762939451
1.2343225479125977,4.490895662456751e-05,-4.655960947275152e-05,0.0007994007319211,0.4769622385501861,0.2837238907814038,9.807327270507812
1.2383174896240234,-0.0010834258282557,-5.367957055568707e-05,-0.0009721489623188,0.4693426191806793,0.285198897123338,9.822409629821776
1.2423136234283447,0.0006150567787699,0.0002734409645199,-0.0002887472510337,0.479337066411972,0.2942622900009167,9.83390998840332
1.2463135719299316,0.0014382139779627,-0.00047701690346,-0.0019135382026433,0.4792331159114837,0.2852678596973431,9.830656051635742
1.2503442764282227,0.0007837957818992,-0.0003761639818549,-0.0023175934329628,0.4801466763019562,0.2827894985675824,9.816762924194336
1.2551064491271973,0.0010617324151098,-0.0002699140459299,0.0002599628642201,0.4827448427677154,0.2980414628982556,9.827281951904297
1.263134479522705,0.001873284811154,-0.0006842529401183,0.0012635034509003,0.467988520860672,0.311993330717088,9.824783325195312
1.2671175003051758,0.0004101695376448,-0.0002650618553161,-0.0009203562512993,0.4754893183708191,0.3143548369407666,9.807299613952637
1.2711775302886963,-0.0028600755613297,0.0002682516351342,-5.692709237337116e-05,0.4633219838142395,0.3081891834735882,9.827817916870115
1.27510666847229,0.0001581438700668,-0.0015382734127342,0.0009025344625115,0.4681542217731476,0.2909862995147717,9.84200954437256
1.2791082859039307,0.0006840022979304,-0.0014341506175696,0.0007760589942336,0.4669433236122131,0.2799731194973004,9.83539867401123
1.2831196784973145,0.0014587158802896,-0.0007904740050435,0.0014921585097908,0.4669326543807983,0.2837996482849133,9.834932327270508
1.287118673324585,0.0015067306812852,-0.0001566652208566,-2.5192275643348503e-06,0.4717069566249847,0.2808881402015698,9.821856498718262
1.2911186218261719,-0.0004632362397387,5.9488229453563866e-05,0.0014547784812748,0.4829538464546203,0.2818975746631634,9.841019630432127
1.29512357711792,-2.716132439672947e-05,0.0015431055799126,-0.0012280168011784,0.4765151441097259,0.2928875386714947,9.835005760192873
1.2992396354675293,0.0002071101334877,0.0027146451175212,-0.0007050028070807,0.4795635342597961,0.2918063700199139,9.80099391937256
1.3031768798828125,0.0012684770626947,0.0018634665757417,-0.0008533736690878,0.4650788903236389,0.2999785244464886,9.79767894744873
1.307112455368042,-0.0010814872803166,0.0005858233198523,-0.0008691912516951,0.4553009867668152,0.3095724284648907,9.805188179016112
1.311110496520996,0.0005937074893154,-0.0005860920064151,-0.0016734926030039,0.4766070246696472,0.3082018792629254,9.837817192077637
1.3191184997558594,-0.0004178498347755,-0.0002627559006214,-0.0002519683912396,0.464879035949707,0.3140465915203106,9.870237350463867
1.3231284618377686,-0.0001631074701435,-0.0023882947862148,0.0009161410853266,0.4592688381671905,0.3116361796855939,9.860915184020996
1.327216625213623,-0.001077001565136,-0.0008950000628829,0.0021168771199882,0.4615933001041412,0.2995451390743268,9.819781303405762
1.331122875213623,-0.0033366612624377,0.0001645265147089,0.0014510806649923,0.4693703353404999,0.2971618175506604,9.822864532470703
1.335127592086792,-0.0016902715433388,0.0004842672497034,-0.0001014359295368,0.4648253619670868,0.3129338026046765,9.81676959991455
1.3431305885314941,-0.0001417801831848,0.0002646651118993,-0.0014366609975695,0.4733752310276031,0.3077152669429791,9.827921867370604
1.3471064567565918,-0.0004085157997906,0.0010149087756872,-4.346296191215527e-05,0.4749267101287842,0.3105896413326275,9.83121395111084
1.3512084484100342,-0.0021023002918809,-0.0001533525064587,0.0002347826957702,0.4881247878074646,0.3024413585662854,9.825960159301758
1.3551156520843506,-0.0007266703178174,0.0002692891284823,7.8798271715641e-05,0.4799814820289612,0.3014210164546979,9.812417984008787
1.359107494354248,-0.0022071388084441,-0.0001531671732664,0.0003452384844422,0.4821853041648865,0.2923664152622235,9.820457458496094
1.3631396293640137,-0.000835872371681,0.0013395901769399,-3.794673830270784e-05,0.4818167090415954,0.2914462685585034,9.83542537689209
1.3671066761016846,-0.0014407333219423,0.0006087236106395,0.00041981972754,0.474896639585495,0.2923839092254651,9.826629638671877
1.3711175918579102,-0.0035631794016808,6.877630949020399e-05,0.001128819771111,0.4593222141265869,0.2985866069793713,9.822855949401855
1.3751676082611084,0.0006854895618744,-0.0012087533250451,0.0007645245641469,0.4544920027256012,0.3134606778621686,9.83445167541504
1.3791086673736572,-0.0016355558764189,-0.0004695327952504,-0.0014952989295125,0.464054524898529,0.3005538284778607,9.847021102905272
1.3831186294555664,-0.0034862796310335,0.0002798335626721,0.0002737259492278,0.4642228186130523,0.2904974520206463,9.838456153869627
1.3871095180511475,-0.0021819504909217,-0.0004658913239836,0.0008681565523147,0.4649016857147217,0.291425019502641,9.83171844482422
1.3911182880401611,0.0006813281215727,-3.755930811166754e-05,0.000761168077588,0.46375373005867,0.2894586622715008,9.813166618347168
1.3991315364837646,3.71368951164186e-05,-0.000357293523848,0.000466632656753,0.4702084958553314,0.289973706007005,9.819146156311035
1.403273582458496,0.001205718377605,-0.0003585433587431,0.0004229499027132,0.4826094210147857,0.3072337508201611,9.831061363220217
1.407193660736084,-0.0011154515668749,-0.000571746379137,0.000934986397624,0.4775422215461731,0.3101176619529736,9.835988998413086
1.4111065864562988,0.0004725697217509,0.0017735082656145,0.0007630139589309,0.4658610820770263,0.3053894042968762,9.857467651367188
1.4191372394561768,0.0017488906159996,-0.0012139878235757,0.0008300011977553,0.4664508998394012,0.3206450641155255,9.834433555603027
1.4231371879577637,-0.0011715989094227,-0.0012113652192056,-0.0004415344446897,0.464843600988388,0.3072371184825909,9.829334259033203
1.4271330833435059,-0.0003083915507886,0.0009159641340374,-0.000269834883511,0.4585383534431457,0.3100546300411236,9.814678192138672
1.435119390487671,0.0016202297993004,-0.001529901754111,9.016506373882313e-05,0.483430951833725,0.2794365882873547,9.814849853515623
1.4391083717346191,-0.0003590533160604,-0.0011018081568181,0.0013352218084037,0.4930548369884491,0.2947030365467084,9.803001403808594
1.4431183338165283,-0.0003577587776817,-0.0021647824905812,0.0013370802626013,0.4867348074913025,0.3014713823795331,9.826131820678713
1.4471070766448975,-0.000812672486063,-0.0019574011676013,0.0006074653938412,0.4685865640640259,0.3000791966915143,9.840166091918944
1.4511172771453857,8.820521179586649e-05,-2.940744161605811e-05,0.0019545932300388,0.4653030335903168,0.3005143105983746,9.842148780822754
1.4551222324371338,0.001296091126278,-0.0015299371443688,-1.8719583749769244e-06,0.4786255657672882,0.3048960864543927,9.853147506713867
1.459106206893921,0.0012264174874871,-3.340188413858402e-05,0.0009603351354598,0.4848020374774933,0.3028560876846325,9.812841415405272
1.4631373882293701,0.0002976473770104,0.000486759468913,-0.0011437786743044,0.4786133468151092,0.3128899633884442,9.800588607788086
1.4671132564544678,-0.0001838916214182,0.0009186491370201,0.0003665769472718,0.4805373549461365,0.2952524721622479,9.814433097839355
1.4711713790893555,0.0011795684695243,-0.000253708101809,-0.0003177560865879,0.4803144931793213,0.2832763195037854,9.820655822753906
1.4751362800598145,-0.0008578337728977,0.0019808029755949,-0.0006733275949954,0.4672943353652954,0.2828562259674084,9.845049858093262
1.4791102409362793,0.000131239532493,-0.0009978269226849,0.0001441929489374,0.4610713422298431,0.2848024964332593,9.857196807861328
1.4831292629241943,0.001086572301574,0.0010253433138132,0.0001052571460604,0.465925931930542,0.2891043722629559,9.858908653259276
1.487133264541626,0.0002085466403514,0.0025138352066278,-0.0006137192249298,0.4567484855651855,0.2885609567165387,9.830591201782228
1.491117238998413,-0.000188979494851,0.0013410048559308,0.0001516211777925,0.4690885245800018,0.2871066629886639,9.827759742736816
1.4951062202453613,0.0008886193390935,0.0010282145813107,0.0005363682284951,0.4727751016616821,0.2924122810363782,9.837148666381836
1.4992132186889648,0.0020844286773353,0.0010194294154644,0.0007018139585852,0.4806299805641174,0.2947455644607556,9.827228546142578
1.5031452178955078,0.0007258506375364,-0.0007893526926636,-0.0010496228933334,0.4671841561794281,0.292855352163316,9.828282356262209
1.5071063041687012,0.0003256807685829,-0.0011059818789362,-0.0003955392166972,0.4622485041618347,0.2980735599994671,9.811253547668455
1.5119192600250244,0.0002144784666597,0.0002784030511975,-0.0008668834343552,0.480747640132904,0.3036419153213513,9.827045440673828
1.5159270763397217,0.0001438487670384,0.0012381030246615,0.0004530185833573,0.4858896732330322,0.2976533472538006,9.828996658325195
1.5239512920379639,0.0011703565251082,0.0004909113049507,-0.0005366662517189,0.4765616059303283,0.2962646484375012,9.848943710327148
1.5319221019744873,-0.0003709977609105,-0.0010025752708315,-0.0018598427996039,0.4580201506614685,0.2961976230144513,9.826239585876465
1.5399179458618164,0.0018714069155976,0.00028080586344,0.0011436268687248,0.483394056558609,0.312039375305177,9.839564323425291
1.543916940689087,0.0034638131037354,0.001558925025165,0.0010806657373905,0.4759584367275238,0.3095200657844555,9.805989265441896
1.547929286956787,0.0026677635032683,0.0003857780247926,-0.0003770049661397,0.4702969789505005,0.3167828917503369,9.821889877319336
1.5519821643829346,0.0005352920270524,0.0004915976896882,-0.0004076370969414,0.4774222671985626,0.2966767251491559,9.820267677307127
1.555906057357788,-0.000922515115235,-0.000465327873826,0.0005012592300772,0.4825909733772278,0.2967170774936688,9.843952178955078
1.5599100589752197,0.0004638987593352,0.0012402655556797,0.000656297430396,0.4750375151634216,0.3019294142723095,9.819897651672363
1.5639309883117676,0.0002475482760928,-0.0006754258647561,0.0004575103521347,0.481301337480545,0.2904144227504742,9.808685302734377
1.5679619312286377,-0.0024165422655642,0.002090785652399,0.0004458166658878,0.4726912975311279,0.3149385750293744,9.848092079162598
1.5719261169433594,-0.0013799485750496,0.0021950155496597,-0.0004463884979486,0.4804985225200653,0.3211344182491314,9.838690757751465
1.5759789943695068,-2.3528991732746363e-05,0.0004880158230662,-0.001131884753704,0.4797374904155731,0.3004899621009839,9.818251609802246
1.5799059867858887,-0.0002059988328255,0.0001727025955915,-0.0003794142976403,0.4700036346912384,0.3067031502723706,9.813819885253906
1.5879180431365967,-0.0003016341652255,0.0003873724490404,5.13326376676559e-05,0.478999376296997,0.3153683841228497,9.824424743652344
1.5919289588928223,-0.0011958634713664,-0.0012078140862286,0.0016836551949381,0.4636261463165283,0.304311126470567,9.809270858764648
1.595916986465454,-0.0002796443295665,-3.254693001508703e-05,0.0008015288040041,0.4652058184146881,0.2985159754753125,9.801098823547363
1.603924036026001,-0.0008112783543765,-0.001631548628211,0.0006054975092411,0.4854990243911743,0.2937934100627911,9.818532943725586
1.6159095764160156,-0.0004735457478091,-0.000462275929749,0.0011215526610612,0.4641138315200805,0.3091198801994336,9.822629928588867
1.6200454235076904,-0.0002274744911119,-0.0007720687426626,0.0019587385468184,0.4649757742881775,0.2933020293712628,9.819870948791504
1.6279234886169434,0.0016910654958337,-0.0002377526834607,0.0019926526583731,0.4762708246707916,0.29667627811432,9.827554702758787
1.631908893585205,0.0019249659962952,-0.0005702758207917,-0.0006721820682287,0.4696556329727173,0.3014019131660473,9.815921783447266
1.6359305381774902,-0.0012039924040436,0.0017738565802574,-0.0014217188581824,0.461564689874649,0.3071829378604901,9.818056106567385
1.6399095058441162,0.0018179573817178,0.0024176212027668,-0.0002543767914175,0.4676648676395416,0.2962020933628094,9.827872276306152
1.6439204216003418,0.0038141873665153,0.0011369837448,-0.0010708393529057,0.4806728065013885,0.3015049099922192,9.8431396484375
1.6479244232177734,0.0008278794120997,8.144043385982532e-05,0.0015986203216016,0.5023690462112427,0.2905243039131177,9.84762191772461
1.6519334316253662,0.0023445701226592,-0.001732621807605,-0.0004758769646286,0.4963777959346771,0.2833108305931103,9.841184616088867
1.659956455230713,0.0025411287788301,-0.0007779709994792,-0.0010264385491609,0.4743804037570953,0.2957721948623669,9.84103012084961
1.6639494895935059,-0.0005661527393385,0.0005063721910119,-0.0008912300691008,0.4577660262584686,0.2826603055000317,9.82240867614746
1.667912483215332,-0.0005104672745801,-0.0001351814717054,5.06490468978882e-05,0.4584034979343414,0.283720374107362,9.822932243347168
1.6719355583190918,0.000393489957787,-0.0003552846610546,-0.0013658134266734,0.4572819471359253,0.2900141179561627,9.844982147216797
1.6759495735168457,-0.0018600528128445,0.0005040895193815,0.0010558841750025,0.4658339321613312,0.2991039454936993,9.8427152633667
1.6839344501495361,0.0005945058073848,-0.0001344941556453,0.0011814599856734,0.4982810914516449,0.3133901357650769,9.814291954040527
1.6919286251068115,0.0013296842807903,0.0010354947298765,0.0009378315880894,0.477810263633728,0.288522928953172,9.830378532409668
1.6999695301055908,0.0003561967751011,0.0010262606665492,0.0006573293358087,0.4787939488887787,0.3000842034816754,9.831192016601562
1.7079176902770996,-0.0023118134122341,-0.0006700968369841,0.0003367457538843,0.4851514995098114,0.3028872311115277,9.821453094482422
1.7159185409545898,0.0002686326042748,0.0010356288403272,0.0009767217561602,0.4766022562980652,0.2976559996604931,9.836597442626951
1.7239336967468262,-0.000692602014169,0.0014613885432481,0.000904131680727,0.4815259575843811,0.3028946816921246,9.8273344039917
1.7319304943084717,-0.0027410676702857,-0.0023720245808362,0.0002442030236124,0.4709916710853576,0.3019314408302319,9.827241897583008
1.739917516708374,-0.0015781705733388,-0.0014143749140203,-1.3543292880058116e-05,0.4697632789611816,0.3114612102508557,9.806724548339844
1.7439162731170654,0.0005407158168964,-0.0024872431531548,-8.844677358865708e-05,0.4813429713249206,0.3029137253761303,9.811649322509766
1.747920274734497,0.0019382450263947,-0.0008816951885819,6.880611181259166e-05,0.4777268767356872,0.3100777566432965,9.82790470123291
1.756711483001709,-0.0003529634850565,0.0011349907144904,-0.0014498773962259,0.4750571548938751,0.298639625310899,9.846668243408203
1.7608556747436523,-0.0004952668678015,0.000288818962872,0.0004744101315736,0.4640862047672272,0.3043492138385785,9.834644317626951
1.7647316455841064,-5.97921316511929e-05,-0.0008880905807018,-0.0020987270399928,0.477812260389328,0.2990415394306195,9.817448616027832
1.7688264846801758,0.0003548541571944,0.0011421190574765,0.0004401644691824,0.4784741997718811,0.2990896403789532,9.835575103759766
1.7727174758911133,-0.0042320513166487,0.0015622898936271,0.0002888068556785,0.4725703001022339,0.2909313440322888,9.831012725830078
1.776707649230957,-0.0004842930065933,-0.0007787370122969,-0.0018659839406609,0.4723979532718658,0.3014705181121838,9.839581489562988
1.7807214260101318,-0.0003141394990961,-0.0026899226941168,-0.000375255011022,0.4640343189239502,0.2938368022441876,9.834715843200684
1.7847216129302979,0.0003165075904689,-0.0006750198081135,-0.0006200661882758,0.4613071978092193,0.2894723415374768,9.823339462280272
1.7887694835662842,0.0001086398260667,-0.0013093203306198,-0.000501150265336,0.4698230922222137,0.2871215939521802,9.834465026855469
1.7927436828613281,0.0013136996421962,-0.001307520084083,0.0004136245697736,0.4842399954795837,0.3000502586364758,9.835820198059082
1.800720453262329,0.0011083430144935,-0.0017325989902019,0.0006342260167002,0.4691578149795532,0.3033424615859997,9.81630802154541
1.8047256469726562,-0.0007411314290948,-0.0013081203214824,-0.0004689907655119,0.4486421048641205,0.313391685485841,9.817954063415527
1.812723159790039,-0.0003217769844923,0.0009250547736883,-0.0005988413468003,0.4644917547702789,0.2962326109409344,9.845630645751951
1.8207170963287354,-0.0014131478965282,-0.0011982535943388,0.0015773344784975,0.4823337495326996,0.2961116433143628,9.79722023010254
1.8287169933319092,-0.0010020288173109,0.0002921763807535,0.0011354153975844,0.4666990339756012,0.2966401875019085,9.814512252807615
1.8367221355438232,0.0005874030175618,0.000282322987914,-0.0019078915938735,0.4576680362224579,0.3105240166187298,9.816226959228516
1.8407130241394043,0.0004220035043545,-0.0009980592876672,-0.0007246304303407,0.4579529464244842,0.3052651882171643,9.810968399047852
1.8448491096496582,-0.002079333178699,-0.0006747250445187,-0.0021239491179585,0.4569869935512543,0.3009733259677899,9.823446273803713
1.8487260341644287,-0.0008048747549764,-0.0018387301824986,0.000706915743649,0.4558707177639007,0.3033838570117962,9.83253574371338
1.8527121543884277,-0.0001398193999193,-0.0024773431941866,-0.0015495270490646,0.4592989981174469,0.297686964273454,9.848150253295898
1.8567790985107422,-0.0006324147107079,-0.0015227878466248,-0.0003668619319796,0.4674776196479797,0.3144382536411297,9.848793983459473
1.8608319759368896,0.0001705440809018,-0.0001272987574338,0.0012926724739372,0.4745533168315887,0.3191455304622662,9.818998336791992
1.8647472858428955,0.000201889546588,-0.0007701814174652,-0.0008354661986231,0.4716872274875641,0.3224630951881421,9.8067045211792
1.8687191009521484,0.0022248469758778,-0.0010910821147263,-0.00090919341892,0.4604343473911285,0.3133591115474713,9.800469398498535
1.8727099895477295,0.0008371053845621,0.0016845799982547,0.0019037476740777,0.4658098220825195,0.3048149943351758,9.828930854797363
1.8767681121826172,-0.0011719317408278,-0.0003416156396269,0.0023060301318764,0.4732130765914917,0.295220345258714,9.83390998840332
1.8807129859924316,0.0010283500887453,0.0002012327313423,0.0010453043505549,0.47374027967453,0.2996281683444989,9.850271224975586
1.884721279144287,-0.0008910119649954,-0.0005564088933169,-0.001755672506988,0.4660834670066833,0.299128055572511,9.850359916687012
1.8887169361114502,-0.0010992476018145,-0.0031147361733019,-0.0014200201258063,0.4747247397899627,0.3014754652977002,9.83724308013916
1.8927299976348877,-0.0011666589416563,-0.0008785463869571,-0.000573182478547,0.4741161167621612,0.2899595201015484,9.821044921875
1.8967089653015137,-0.0018628668040037,0.0001895660534501,0.0009417189285159,0.4761165380477905,0.2875165343284619,9.809978485107422
1.9008231163024902,0.0028412635438144,0.0021092593669891,0.0014042346738278,0.4852925837039947,0.2937895655632031,9.825376510620115
1.9048492908477783,-0.0002753603039309,0.0021079657599329,0.0007711462676525,0.4678615033626556,0.3019231259822857,9.820247650146484
1.9087140560150146,-0.0014527523890137,0.0005071852356195,0.0005020145326852,0.4618524014949798,0.300444543361665,9.812378883361816
1.9127120971679688,0.0008675112621858,-0.0009816135279834,-0.0001126993447542,0.4740695357322693,0.2951886653900158,9.819554328918455
1.9168260097503662,-0.0008699247846379,0.0011438289657235,-0.0010141814127564,0.4920734465122223,0.3144068717956555,9.840354919433594
1.9207332134246826,0.0002361348015256,-0.0011964896693825,1.7913989722728875e-05,0.4892072379589081,0.3095947504043591,9.828058242797852
1.9247660636901855,0.0001916555920615,0.0001912005245685,0.0017186542972922,0.4984596967697143,0.3042897284030926,9.81912612915039
1.9287760257720947,0.0010959049686789,0.0013532899320125,0.0003045639023184,0.4787463545799255,0.2885762155056012,9.841297149658203
1.9327280521392822,0.0003368286998011,0.0006090542301535,-9.72580164670945e-05,0.4871528148651123,0.2966545820236218,9.823817253112791
1.9367201328277588,-0.0002386520500294,-0.0010750438086688,-0.0013441583141684,0.4880596995353699,0.3171750605106366,9.834272384643556
1.940718173980713,0.0007036178139969,-0.001403646543622,0.0011734943836927,0.4769182205200195,0.3187411129474652,9.844693183898926
1.9447252750396729,-0.0016667847521603,-0.0038459841161966,0.0001006629317998,0.4737589359283447,0.2996086478233349,9.837790489196776
1.9488232135772705,-0.0008644085610285,0.0003988556563854,-0.0009039770811796,0.4722427129745483,0.301501661539079,9.847782135009766
1.9527671337127686,-0.0010461187921464,-0.0010909968987107,-4.186201840639101e-05,0.4819836020469665,0.3024502694606793,9.839301109313965
1.956712007522583,-0.0010916102910414,-0.0011059860698878,-0.001104756258428,0.4767480492591858,0.3138924241065991,9.840439796447754
1.960712194442749,0.000785477401223,-0.0005647060461342,-0.0023475252091884,0.4769500195980072,0.2962050437927258,9.832837104797363
1.9655241966247559,-0.0012436667457222,0.0010998910292983,0.0004824185743927,0.4839187264442444,0.2920574545860303,9.835034370422363
1.9695241451263428,-0.0002108463668264,-0.001083503011614,0.0023776106536388,0.4840441942214966,0.3000302016735089,9.830151557922363
1.9735171794891357,-0.0002742432407103,-0.0015141265466809,0.0006760749965906,0.4683533310890198,0.3085825443267834,9.8073148727417
1.977541208267212,0.0008815241744741,-0.0013012080453336,0.0003177598118782,0.4677529036998749,0.306736618280412,9.84360408782959
1.9815092086791992,0.0022109041456133,-0.0021500959992408,0.0015466986224055,0.4674767851829529,0.3120199441909802,9.835027694702148
1.9855082035064697,0.0016994634643197,-0.002047227229923,-0.0006704656407237,0.4825378954410553,0.2990304231643689,9.815428733825684
1.9895081520080566,0.0020868901629,-0.0002397252246737,0.0011162403970956,0.4731619954109192,0.2966513633728039,9.821005821228027
1.993537187576294,-0.000707674305886,-0.0016200547106564,0.0004808781668543,0.4726883172988891,0.3066999614238751,9.821002960205078
1.9975202083587646,0.0001126642455346,-0.0010821539908647,0.0024740323424339,0.4666194319725036,0.3042373061180127,9.7992582321167
2.0055220127105713,-0.0001196803059428,0.0008225440979003,-0.0009325565770268,0.4916243255138397,0.3118772506713879,9.789250373840332
2.0095081329345703,0.0032014653552323,-0.0007693977095186,-0.0004153857007622,0.5005436539649963,0.2947731614112866,9.823807716369627
2.0136332511901855,0.0013328942004591,-0.0007667881436645,0.0009357761591672,0.4938879013061523,0.2918722927570355,9.825023651123049
2.0175302028656006,0.0003404447925277,0.0006152670830488,1.1036172509193346e-05,0.4937070608139038,0.3043018877506268,9.819758415222168
2.021514415740967,3.116542939096689e-05,0.0012529399245977,0.0002308683469891,0.4787829518318176,0.2980220913887036,9.805013656616213
2.029512405395508,-0.0008795676985755,-0.0017234571278095,0.0015518148429691,0.484358012676239,0.2933326661586773,9.83920955657959
2.0335230827331543,-0.0001805014908313,-0.001090785022825,0.0003561861813068,0.4699040055274963,0.2957133650779736,9.836392402648926
2.041506290435791,0.0011650272645056,-0.0011992412619292,-0.0007619224488735,0.467319905757904,0.3062732815742505,9.844111442565918
2.0455143451690674,0.0019996468909084,-0.0012017325498163,-0.0012175654992461,0.4730172157287597,0.3048426210880292,9.842944145202637
2.0535264015197754,-0.0001821753103286,-0.000875343568623,0.0002475874498486,0.466178148984909,0.3090997934341443,9.825995445251465
2.0615103244781494,0.0006475290865637,0.0006145238876342,-0.0003208052366971,0.4801455736160278,0.3019803464412701,9.842204093933104
2.0655133724212646,-0.0013910214183852,7.805600762367239e-05,-0.0007776133716106,0.4946923851966858,0.300042510032655,9.833600997924805
2.073524236679077,-0.0010285736061632,8.977856487035755e-05,0.0003720875829458,0.4791674017906189,0.2894763350486767,9.827594757080078
2.077575206756592,-0.0024990814272314,-0.0004445947706699,0.0007559275254607,0.4752846658229828,0.2995390892028821,9.839123725891112
2.081526279449463,-0.0011114793596789,0.0009689051657915,0.003794974181801,0.4849424362182617,0.2918645441532147,9.852303504943848
2.0895063877105713,-0.0003509024973027,-0.0005577746778726,-0.0013579176738858,0.4892928600311279,0.3110684156417859,9.842891693115234
2.0935163497924805,-0.0002331905707251,0.0001986483111977,-0.0009438376873731,0.4737745523452759,0.3072049617767346,9.83497142791748
2.09763240814209,9.78076714091003e-05,-0.0004460643976926,-0.000832974910736,0.4799934029579162,0.311489909887315,9.82702922821045
2.101506233215332,-0.0004314366960898,-0.0018275813199579,-0.00070705357939,0.4841529130935669,0.2866365015506756,9.833111763000488
2.1055173873901367,-6.174168083816767e-05,0.0001949006691575,0.0006540762260556,0.4783389866352081,0.2871184051036847,9.844279289245604
2.1135151386260986,0.000121351564303,0.0010457336902618,-0.0002039531245827,0.4662989974021911,0.3086588978767407,9.842313766479492
2.1175060272216797,-0.000814754050225,0.000407182611525,0.0003660516813397,0.4779137969017029,0.3162780404090893,9.819438934326172
2.121518135070801,-0.0007893479196354,0.0003037024289369,0.0011085923761129,0.4742385149002075,0.3066623806953442,9.810523986816406
2.1255781650543213,0.0005153591628186,0.0003057979047298,0.0020204582251608,0.4781366884708404,0.3071776628494275,9.824783325195312
2.1295759677886963,0.0006665042019449,0.0010428614914417,-0.0002365540713071,0.4828536212444305,0.2970621287822735,9.822999000549316
2.1335251331329346,-0.0005049672327004,0.001255071721971,-7.980316877365127e-05,0.4787646234035492,0.2942366003990185,9.828965187072754
2.1375250816345215,-0.0005087322788313,0.00115417689085,0.0001387782394886,0.4790458381175995,0.3009447753429425,9.82418727874756
2.1415059566497803,0.0014214050024747,0.0006205746904015,0.0003913454711437,0.479456752538681,0.2990662753582013,9.835613250732422
2.1455161571502686,0.0008465488790534,0.0017902990803122,-0.0007629515603184,0.4769046306610107,0.2957489788532269,9.843873977661133
2.149506092071533,-0.0018892725929617,-0.0014069653116166,-0.0027832919731736,0.4651229083538055,0.3004981577396405,9.83614444732666
2.157505989074707,0.0013109555002301,0.0017923507839441,0.0002837525680661,0.4960840940475464,0.29332533478737,9.83217716217041
2.161518096923828,0.0011922616977244,0.0014711581170558,-3.0499882996082485e-05,0.4830099940299988,0.3023626208305371,9.814964294433594
2.1655280590057373,-0.0001193822245113,-0.0005544684827327,-0.0009334245696663,0.4651651978492737,0.2918184697628033,9.811354637145996
2.1735169887542725,-0.001513167284429,0.0019992887973785,-0.0012101251631975,0.4828575849533081,0.3014664053916943,9.836926460266112
2.1815061569213867,-9.224697714671493e-05,0.0016820803284645,-0.0001977076753973,0.4835132658481598,0.3119329214096081,9.81588649749756
2.1855061054229736,0.0009010590147227,0.000623426400125,0.000728815793991,0.4744728803634643,0.3133460581302655,9.803772926330566
2.189626693725586,0.0009580078767612,0.0009358832612633,-0.0005529802292585,0.4731536507606506,0.3152952790260327,9.820523262023926
2.1936140060424805,-0.0009299632511101,0.0009394288063049,0.0001569036394357,0.4805442094802856,0.3067240417003644,9.838906288146973
2.197514057159424,0.0008984837331809,0.0009390097111463,0.0006225500255823,0.49109548330307,0.289936274290086,9.826615333557127
2.2055180072784424,4.568265285342932e-05,-0.0002391804009675,-0.0023272400721907,0.4789990484714508,0.2899695336818707,9.836113929748535
2.209506034851074,-0.0002919789694715,-0.0011910120956599,0.000140287913382,0.4726304709911346,0.2837037444114697,9.819673538208008
2.21750807762146,0.001721364678815,0.0013655917719006,-0.0001549506559967,0.4745261073112488,0.2880134880542767,9.818628311157228
2.2215261459350586,-0.000192184059415,0.0006202924996614,-8.259899914264687e-05,0.4732144474983215,0.2980491220951092,9.821513175964355
2.229509115219116,-0.0009780833497643,-0.0007694507949054,-0.0012249909341335,0.4696214199066162,0.279438227415086,9.828835487365724
2.234328031539917,-0.0013224317226558,-0.0016524097882211,0.0005014287307858,0.4866323471069336,0.3028560578823102,9.866358757019045
2.2383179664611816,-0.0016431263647973,0.0022134901955723,0.0011406438425183,0.4893168210983276,0.3092325627803814,9.869132041931152
2.2423131465911865,-0.0004800241440534,0.0008343243971467,0.0007806392386555,0.4671464264392853,0.3024739623069775,9.852300643920898
2.2463130950927734,0.000634602853097,-0.0005554724484682,-0.0007483791559934,0.4727107286453247,0.30050227046013,9.8344087600708
2.2503139972686768,-0.0004471906577236,-0.0009814747609198,-0.0011332742869853,0.4785140752792358,0.3091076016426098,9.836078643798828
2.258316993713379,-0.0006888086209073,-0.000123431906104,0.0010021161288022,0.4733740091323852,0.311074495315553,9.839109420776367
2.262321949005127,0.0009610773413442,-0.0001267855986952,-0.0005484521389007,0.4829016029834747,0.322078049182893,9.838312149047852
2.2663159370422363,0.0021993992850184,-0.000240109860897,-0.0014447420835494,0.482863187789917,0.3057305514812481,9.810651779174805
2.2704100608825684,0.0016732130898162,-0.0006635407917201,-0.0014234110713005,0.4683663249015808,0.3115394711494458,9.846470832824709
2.274312973022461,-0.0005289590335451,0.0021091997623443,-0.0004991441965103,0.4694433510303497,0.3082055449485791,9.849769592285156
2.2783169746398926,-0.0012811495689675,-0.0002238722518086,0.0020886524580419,0.4725028872489929,0.2909591197967541,9.841629981994627
2.282313108444214,-0.000615045602899,-0.0009798924438655,0.0001530805602669,0.4677581489086151,0.2976169288158429,9.830318450927734
2.28631329536438,0.0015191347338259,-0.0010832496918737,7.087364792823805e-05,0.4790225028991699,0.2990048229694378,9.810805320739746
2.294316053390503,0.0003497473662719,0.001893994398415,0.000215302221477,0.4683178961277008,0.2898847460746777,9.805953025817873
2.29844069480896,-3.59703553840518e-05,-0.0008689044043421,0.0013021738268435,0.464289128780365,0.2909045815467846,9.826631546020508
2.3023293018341064,0.0001026710961014,-0.0014053233899176,-0.0007250579074025,0.4625812470912933,0.2847017645835888,9.832412719726562
2.3063199520111084,-0.0009584323852322,0.0008290819823741,-0.0005867015570402,0.4655072093009949,0.2856500446796429,9.833747863769531
2.3103160858154297,0.0005170513759367,-2.4756416678428785e-05,-0.0010654013603925,0.4692660570144653,0.2904365062713635,9.83169651031494
2.3183302879333496,-0.0005549187771975,-0.0020472509786486,-0.0012324042618274,0.4640771448612213,0.2908873856067669,9.82089138031006
2.322317600250244,0.0009691077866591,0.0008233105763792,-0.0001241751015186,0.4639731347560882,0.2952116727828991,9.83089542388916
2.326329469680786,0.0026034608017653,-0.0011841650120913,0.0005632676184177,0.4814611673355102,0.2995046973228467,9.814947128295898
2.3303205966949463,0.0001136172213591,0.0018854932859539,-0.0005173468962311,0.4895302355289459,0.2837186157703412,9.823283195495604
2.3343234062194824,0.0005940998089499,0.0017886711284518,-0.0019260542467236,0.4891404211521148,0.2899719774723065,9.838578224182127
2.3383164405822754,-0.0011843317188322,0.0002613170072436,-0.0008592614904046,0.4671267569065094,0.2928439974784863,9.827959060668944
2.3423116207122803,-0.0013091559521853,-0.0004844926297664,-0.0012740017846226,0.4866885542869568,0.2956861555576336,9.81432056427002
2.346437692642212,-0.0007351046660915,0.0011152457445859,-0.0002398453652858,0.4878990352153778,0.2933371961116803,9.832930564880373
2.350395679473877,0.0014872339088469,-0.0005933074280619,-0.0006344961002469,0.4805880486965179,0.2770771384239209,9.842310905456545
2.354360580444336,0.0016166602727025,-0.0005767280235886,0.0003150254487991,0.4711610674858093,0.2751759588718426,9.836015701293944
2.3584184646606445,0.0003827787586487,-0.0010147183202207,0.0012231534346938,0.4711112976074219,0.2765590548515332,9.82923984527588
2.3623294830322266,0.0008734120638109,-0.0018628155812621,2.5492161512375105e-05,0.4961111545562744,0.2871338129043591,9.834569931030272
2.366319417953491,-0.0009457250707782,-0.0019760583527386,-0.0001150509342551,0.4871624112129211,0.2928891777992261,9.851614952087402
2.3704426288604736,0.0025811032392084,-0.0012249210849404,0.000177307985723,0.4827889502048492,0.2913726866245282,9.811151504516602
2.3743433952331543,0.0007767857750877,-0.0011181193403899,0.0004572346806526,0.4659233093261719,0.2995422184467328,9.821332931518556
2.3783156871795654,0.0020433273166418,-0.0002658534795045,-1.7996877431869473e-05,0.4599623680114746,0.2990636825561535,9.827247619628906
2.3823115825653076,0.0001927890698425,-0.0042044981382787,-0.0011129658669233,0.4628876149654388,0.3091455399990094,9.842873573303224
2.3903234004974365,0.0002783665549941,0.0007925992831587,-0.0016618212684988,0.4718793034553528,0.3144197165966046,9.839679718017578
2.3943114280700684,0.0018454412929713,-0.0006924332119524,0.0005169101059436,0.4670082628726959,0.3015258908271802,9.837447166442873
2.3984475135803223,0.0010329149663448,0.0001616869121789,0.0015074028633534,0.4854114651679992,0.2929274439811719,9.856423377990724
2.406311511993408,-0.0026675686240196,-0.0003700908273458,0.0021743150427937,0.4786855578422546,0.2875047326087964,9.803263664245604
2.410311698913574,-0.0007624707068316,-0.0007953974418342,0.0020016399212181,0.4704916477203369,0.2970716655254376,9.802048683166504
2.4183263778686523,0.0020224219188094,-0.0021827328018844,-0.0005473494529724,0.4713736474514007,0.3066916763782513,9.812986373901367
2.426318407058716,0.0002417527139186,0.0006860829889774,0.0004729442298412,0.4761542975902557,0.2837511599063885,9.826169967651367
2.430318593978882,0.0014287724625319,0.0011206082999706,0.0004208628088235,0.4784251749515533,0.2870516777038586,9.83477020263672
2.438314437866211,0.0018341967370361,-0.0002676816657185,9.545776993036271e-05,0.4677537381649017,0.3014639317989361,9.831743240356444
2.4423105716705322,-0.0009460687288083,0.0013279616832733,-0.0002337088808417,0.4798006117343902,0.2937884926795971,9.820836067199709
2.450322389602661,0.0011947802267968,-0.0004800762981176,0.0001152781769633,0.4775165915489197,0.2871021032333386,9.823805809020996
2.4583144187927246,0.0008412328897975,0.0018638214096426,-0.0008357316255569,0.478023499250412,0.2828265726566327,9.83766269683838
2.4624273777008057,0.0004554188926704,0.000596503727138,0.0001404108479619,0.4779427945613861,0.2947672307491314,9.847134590148926
2.466315507888794,0.0002070279442705,0.0008061174303293,0.0022777556441724,0.4688946306705475,0.3043698370456708,9.83647346496582
2.470327377319336,0.0018406857270747,-0.001435148064047,0.0003084223717451,0.4672080874443054,0.3048554062843335,9.842748641967772
2.4743103981018066,0.000168407917954,0.0003789793699979,0.0012173764407634,0.4545978903770447,0.3009592890739453,9.825078964233398
2.4791154861450195,-0.0017873393371701,9.006354957818986e-05,9.999237954616544e-05,0.4556769132614136,0.301593601703645,9.81773567199707
2.483116388320923,-0.0006111157126724,5.5713579058647176e-05,0.0001832330599427,0.4594661891460418,0.306313067674638,9.853079795837402
2.4871037006378174,0.0001527714193798,-5.150027573108665e-05,0.0006836652755737,0.4649726450443268,0.3130738437175763,9.87290096282959
2.4951095581054688,-0.0008990938658826,0.0009109824895858,0.0010408777743577,0.4649765789508819,0.2948744893074048,9.860554695129396
2.499232292175293,0.0010727276094257,0.0013314085081219,-0.0003114808350801,0.4771717190742492,0.3076828420162213,9.82707977294922
2.503138542175293,0.0031976529862731,-0.0004756469279527,-0.0004890458658337,0.4929266571998596,0.2880214452743542,9.826138496398926
2.507103681564331,0.0023925881832838,0.0008017197251319,0.0008142171427607,0.4910075068473816,0.2966373562812817,9.826170921325684
2.511103391647339,0.0011680631432682,0.0010112076997756,-0.0005241632461547,0.4788677096366882,0.3167989253997815,9.83361530303955
2.5191264152526855,0.0014866280835121,0.0011171037331223,-0.0006456039845943,0.4787551164627075,0.2991146445274365,9.844266891479492
2.523125410079956,0.0026491307653486,0.0012244256213307,-0.0009005228057503,0.478154718875885,0.2770506441593182,9.82763957977295
2.527247428894043,0.0035051351878792,0.0001578265801072,-0.0007190201431512,0.4599714279174804,0.2856574058532727,9.827789306640623
2.531120538711548,0.0016122079687193,0.0010111657902598,-0.0001175189390778,0.4766833484172821,0.298535466194154,9.8128080368042
2.535128593444824,-0.0003270478046033,-0.0003704028204083,-0.000786536373198,0.4679997861385345,0.2980854809284222,9.811697959899902
2.539114475250244,0.0014905952848494,0.0001636017113924,-0.0006467094644904,0.4722180962562561,0.2985219955444348,9.809165954589844
2.5471155643463135,0.0005717293825,0.0009072618559002,0.0005622198805212,0.4726268053054809,0.3119978308677685,9.833495140075684
2.5512595176696777,-0.0026577864773571,-0.0005843075923621,-0.0003852769732475,0.4806862771511078,0.318694204092027,9.832199096679688
2.5591084957122803,0.0010391394607722,0.0012210337445139,-0.0012673716992139,0.4744017720222473,0.2962067723274243,9.8301420211792
2.563145399093628,-0.0002201578754466,0.0013357521966099,-0.0009167660027742,0.4798066616058349,0.2947641611099255,9.81837558746338
2.567115545272827,0.000380870711524,0.00059315841645,0.0012040762230753,0.4827136993408203,0.2933035492897046,9.822158813476562
2.57110857963562,0.0008426106651313,0.0004800138995051,-0.0008342824876308,0.4656394124031067,0.3091444969177258,9.838996887207031
2.575228452682495,-0.0001044104574248,0.0002676043659448,-0.0004798173904418,0.4689392745494842,0.3005299866199505,9.837462425231934
2.5831174850463867,-0.0009394591324962,-0.0006892289966344,-2.0478852093219672e-05,0.4705225825309753,0.2847405672073376,9.841745376586914
2.587104558944702,-0.0010632437188178,-0.0020658145658671,-0.0005559790879487,0.473233014345169,0.2985653281211865,9.82359218597412
2.5911142826080322,0.0002091735368594,-0.0018511265516281,-0.0007069371640682,0.47559654712677,0.2947727441787732,9.835925102233888
2.595104455947876,-0.0002495335938874,-0.0016517820768058,-0.0015466995537281,0.4827273190021515,0.2986007332801831,9.84713077545166
2.59924054145813,-0.0019096421310678,0.000487077049911,-0.0004251562058925,0.47584930062294,0.3139007687568677,9.830138206481934
2.6031365394592285,-0.0018123168265447,0.0002751685678958,-0.0006397888064384,0.4663786292076111,0.3153034150600445,9.81950855255127
2.607104539871216,-0.0025566737167537,-0.0002474226057529,0.0022665313445031,0.4729296565055847,0.3162654340267193,9.815425872802734
2.6151113510131836,0.0007359234150499,-0.0011005448177456,0.0020394721068441,0.4769645631313324,0.2976005375385296,9.821062088012695
2.6231603622436523,0.0019553513266146,-0.0016391775570809,0.0003953324630856,0.4656222462654114,0.2932586967945111,9.811443328857422
2.6271071434020996,0.000942398852203,0.0011336663737893,0.0020255343988537,0.4844204485416412,0.3005230128765118,9.813173294067385
2.631124258041382,0.0006818904657848,0.0029406212270259,0.0005426118150353,0.4820550382137298,0.2927291393280041,9.789891242980955
2.6391191482543945,-0.0009422638104297,0.000171129591763,-0.000138915143907,0.4821685254573822,0.2946195006370556,9.780306816101074
2.6431243419647217,0.0001698349369689,0.0010195197537541,-0.0016716653481125,0.4692619740962982,0.2904206216335309,9.819916725158691
2.6471142768859863,-0.0016829516971483,0.0011282423511147,-0.0001185880973935,0.4707573056221008,0.2971284985542309,9.83564567565918
2.6511170864105225,-0.000372130627511,0.0008037826046347,-0.0019711833447217,0.4772599637508392,0.3047580122947705,9.815781593322754
2.6591403484344482,0.0011341634672135,0.0007115313783288,0.0012752497568726,0.4568260908126831,0.3081606328487408,9.834102630615234
2.6631782054901123,-0.0001040970673784,0.0010213088244199,-0.0004927068948745,0.4446031451225281,0.3018051683902752,9.78688907623291
2.6671082973480225,-0.0011929443571716,0.002512109465897,-0.0010932404547929,0.4555974304676056,0.2950878739357007,9.78652000427246
2.675110340118408,-0.0002969109336845,0.0004905872046947,4.837289452552789e-05,0.472378134727478,0.3152846693992627,9.81353759765625
2.6791043281555176,0.0004123449907638,-0.000470750965178,-0.000933950766921,0.4606230854988098,0.2962082028388989,9.832158088684082
2.683117151260376,7.251324132084846e-05,-0.0019604000262916,-0.0015547666698694,0.4673870503902435,0.2971457540988934,9.833812713623049
2.68711519241333,-0.0002532267826609,-0.0014296630397439,-0.0016531404107809,0.4729921519756317,0.3153196573257458,9.830243110656738
2.691127300262451,-0.0013276673853397,-0.0015285881236195,0.0009445268660783,0.4691182374954223,0.2962113916873944,9.841886520385742
2.6951043605804443,0.0007449652184732,-0.0007878020405769,-0.000624906271696,0.4747758209705353,0.298567593097688,9.826844215393066
2.699233293533325,-0.0002567925839684,0.000699914060533,-0.0017639473080635,0.4761147499084472,0.3043006658554089,9.823933601379396
2.7071101665496826,0.001861861324869,-0.0006796829402446,0.0008227191865444,0.4742693305015564,0.309028744697572,9.800090789794922
2.715120315551758,-0.0011707475641742,0.0010207826271653,-0.0005600033327937,0.4758227467536926,0.3005219697952282,9.8421049118042
2.719119071960449,-0.0008242629119195,-0.0004688138142228,0.0001763645559549,0.46473428606987,0.2827700376510632,9.826793670654297
2.72393536567688,0.0016279267147183,0.0013488121330738,0.0012032845988869,0.4608131647109985,0.2896744906902325,9.837584495544434
2.7279491424560547,0.0026864693500101,-4.366412758827208e-05,0.0001527955755591,0.4718246161937713,0.2942923009395611,9.83703327178955
2.7319111824035645,0.0025477260351181,0.0003835717216134,-0.0008026417344808,0.4681215286254883,0.3105559945106518,9.828036308288574
2.7359352111816406,0.0013617913937196,-0.0013212929479777,-0.0011792164295911,0.4904892444610595,0.3091014325618756,9.824344635009766
2.7439281940460205,-9.981635957956314e-05,0.0002766959369182,-0.0003851512446999,0.4941548109054565,0.2994787693023694,9.807058334350586
2.7479162216186523,0.0010736851254478,-0.0001467652618885,-0.0003201188519597,0.4982109665870666,0.3029117584228528,9.838847160339355
2.7559163570404053,0.0013204026035964,0.0017699738964438,0.0006254753097891,0.4781253933906555,0.3072184324264538,9.839144706726074
2.7599732875823975,0.0004242879804223,-0.0001397281885147,0.0022589974105358,0.4810772538185119,0.3048694729805005,9.854775428771973
2.763944149017334,0.0012145190266892,-0.000346764922142,0.0034036925062537,0.4855895042419433,0.3048364818096173,9.84743881225586
2.7719483375549316,-0.0009333505877293,0.0026227589696645,6.663426756858793e-05,0.4774515628814697,0.3109418451786053,9.807623863220217
2.77993106842041,0.0006300026434473,0.000806319527328,-0.0008402727544307,0.473526656627655,0.2922863960266125,9.805427551269531
2.7879161834716797,0.0009998800233006,0.0012380676344037,0.0005303872749209,0.4682319462299347,0.2899963557720196,9.843836784362791
2.7959210872650146,0.0001031231950037,0.0021920809522271,-0.0007169805467128,0.472152829170227,0.3163398504257214,9.8464994430542
2.8039612770080566,-0.0012485592160373,0.00187573954463,0.0001840768381953,0.4554043710231781,0.3092196285724652,9.872413635253906
2.8119072914123535,-0.0023953767959028,0.0009196642786264,0.0008685970678925,0.4878697991371155,0.2870911657810223,9.831189155578612
2.8160018920898438,-0.0004733569221571,0.0012394096702337,0.0010101469233632,0.4711169004440307,0.2879760563373578,9.805065155029297
2.81992769241333,-0.0001821491750888,-0.0007869228720664,0.0002582324668765,0.4785304963588714,0.2937763631343854,9.824387550354004
2.8279318809509277,-0.0006702031823806,-0.0026911171153187,0.0013379678130149,0.4782210886478424,0.3028731346130383,9.828742980957031
2.8319246768951416,-0.0019745563622564,-0.0001416383311152,0.0007450422272086,0.4766884744167328,0.2914218008518231,9.82597827911377
2.839918851852417,0.0006036741542629,0.000397210009396,0.0012819208204746,0.4748008847236633,0.3085769414901745,9.813580513000488
2.8439316749572754,-0.0012621416244655,-0.0006693927571177,-0.0002397475764155,0.4776986539363861,0.3099727332592022,9.80153465270996
2.8519177436828613,-0.0017006879206746,-0.0007784538902342,-0.0005458537489175,0.4837776720523834,0.3118828833103192,9.797481536865234
2.859905481338501,-0.0003266200947109,0.0007108254358172,-0.0008133184164762,0.4627008438110351,0.2937635183334363,9.823128700256348
2.8639297485351562,-0.0005233249394223,0.0017761038616299,-0.0003829160705208,0.4753912091255188,0.2889963984489453,9.829841613769531
2.8679258823394775,-0.0021831439808011,0.001249199733138,0.0007433900609612,0.4754878878593445,0.2894747257232678,9.832198143005373
2.871917486190796,-0.0002611959935165,-3.334041684865938e-05,0.0011032707989215,0.4811576902866363,0.2909335196018231,9.830132484436035
2.8759188652038574,0.0014579524286091,7.87088647484781e-05,0.0013593635521829,0.4923849999904632,0.2860333025455487,9.797231674194336
2.879918098449707,0.0007311087101697,-0.0002391152083873,0.0019204458221793,0.4925678670406341,0.2965820133686078,9.801950454711914
2.8839306831359863,-0.0012311727041378,0.0003966931253671,0.0006052190437912,0.4868169724941253,0.2850875258445752,9.80175495147705
2.887918710708618,-0.0015257373452186,-0.0006643789820373,-0.0013081058859825,0.4886347353458404,0.2951836287975323,9.82551383972168
2.8919336795806885,0.0009369143517687,-0.0020509278401732,0.0017037075012922,0.4871655404567718,0.2933219373226178,9.837493896484377
2.8959999084472656,0.0013084132224321,-0.0005638115108013,0.0001957230269908,0.4800516664981842,0.2861756682395947,9.839713096618652
2.9000227451324463,-6.994925206527114e-05,0.0017830189317464,0.0004531051963567,0.4762181341648102,0.2957477867603314,9.839829444885254
2.904073476791382,0.0011366528924554,0.0004004454240202,0.0013676895759999,0.4661315381526947,0.2876074910163891,9.83780574798584
2.9079058170318604,0.0011030496098101,-0.0006695110350847,0.0004159100353717,0.4673978090286255,0.2985380887985241,9.82103443145752
2.9119067192077637,0.0010507479310035,-0.0008785091340541,0.001803632825613,0.4666585326194763,0.2980423867702496,9.813429832458496
2.915922164916992,-0.0014278503367677,0.0011396864429116,0.0010364530608057,0.4579184055328369,0.3090369403362286,9.822750091552734
2.919929265975952,-0.0003014652174897,0.0013498915359377,-0.0001757154241204,0.4753674864768982,0.3148835003376019,9.84264087677002
2.9239301681518555,0.0003472214448265,0.0001842714846134,-0.0026509026065468,0.4848256707191467,0.2953067123889935,9.83720588684082
2.9280402660369873,0.0029471260495483,-0.0019433996640145,0.0013097953051328,0.4706217050552368,0.2760327458381665,9.817145347595217
2.931932210922241,-0.0003805186133831,-0.0010977978818118,0.0005803108215332,0.4552169740200043,0.2760416567325604,9.827260971069336
2.935920238494873,-0.0005467144655995,0.0007168818265199,0.0018560122698545,0.4584794342517853,0.3009338378906262,9.825628280639648
2.9399302005767822,-0.000721390300896,7.530022412538528e-05,5.451496690511703e-05,0.4633845686912536,0.3081666827201855,9.841679573059082
2.9439401626586914,0.0018447923939675,0.0020967870950698,0.0002733683213591,0.4661422371864319,0.2962276637554181,9.851624488830566
2.9479193687438965,0.0001335958950221,0.0009371815249323,0.003002705052495,0.4697940349578857,0.2918722927570355,9.833866119384766
2.9519522190093994,-0.0008907801820896,0.00114506483078,0.0011170450598001,0.4651206135749817,0.3018742501735699,9.823528289794922
2.956721067428589,0.0007485905080102,0.0001089191064238,0.0013212254270911,0.4717842638492584,0.3039997816085827,9.83125114440918
2.960801362991333,0.0005897710216231,-0.0003500431776046,0.0009684804826974,0.4662276208400726,0.3057111203670514,9.815290451049805
2.964728355407715,0.0016531536821275,0.000290909782052,0.0008186139166355,0.4799427986145019,0.3081158697605145,9.823403358459473
2.9727091789245605,1.439626794308424e-05,-0.0003527170047163,-0.0001830868422985,0.463580459356308,0.3157350122928631,9.808210372924805
2.9767072200775146,-0.0002002565888687,-0.0007818825542926,-0.0004977267235517,0.4657766819000244,0.3009553551673901,9.816293716430664
2.9847352504730225,1.2153061106801031e-05,0.000718860886991,0.0025819460861384,0.4740077555179596,0.2851717770099652,9.831324577331545
2.988715171813965,0.0003236216143704,0.0010294942185282,-0.0005172984674572,0.4737747311592102,0.2894900739192975,9.837990760803224
2.992722272872925,0.0004174038185738,-0.0002469783648848,-0.0008382285013794,0.4812654852867126,0.2999976277351391,9.833407402038574
2.9967122077941895,0.0006335889338515,0.001026764512062,-0.0008513648062944,0.4683781862258911,0.3129601776599896,9.846637725830078
3.004725217819214,0.0003566042869351,0.0001805033534765,0.0003349324688315,0.479261189699173,0.3033838570117962,9.843938827514648
3.0127248764038086,-0.0014641820453107,-0.0008832411840558,8.499622344970714e-05,0.4667575061321258,0.2980463206768048,9.816259384155272
3.020711660385132,-0.0001559509546495,0.0015676403418183,0.000882526859641,0.4603534936904907,0.2875451445579541,9.824628829956056
3.028721809387207,-0.0009281360544264,-0.0008823140524327,0.0001714415848255,0.4796913862228393,0.2837546765804303,9.84255027770996
3.0367116928100586,-0.0004982884856872,-0.0020547043532133,0.0002676807343959,0.4825284779071808,0.2923334538936627,9.82857894897461
3.0407254695892334,-0.0002687075757421,0.0004999060183763,0.0007809177041053,0.4782186448574066,0.3018811345100415,9.81580924987793
3.0448226928710938,-0.0001764683402143,0.0018839854747056,0.0003497032448649,0.4900702536106109,0.302387982606889,9.825414657592772
3.0487260818481445,-0.0007974423351697,0.000928433611989,0.0006918357685208,0.4854930937290191,0.3109905123710644,9.817974090576172
3.0527267456054688,-0.0001938618370331,0.0002869945019483,-7.14119523763657e-05,0.4800490736961365,0.3063001334667218,9.839099884033203
3.056830883026123,-0.000348959933035,-0.0004538623616099,0.0014273719862103,0.4783308804035187,0.2957988083362591,9.870737075805664
3.060833692550659,-0.0001154112978838,0.0012571010738611,0.002044013235718,0.4853535592556,0.2785653769969952,9.865882873535156
3.064725875854492,-0.0002194439002778,0.0006203465163707,0.0020495522767305,0.4864989221096039,0.28280407190323,9.845273971557615
3.068737745285034,-0.0006139239412732,0.0005093850195407,3.84515151381492e-05,0.4808024168014526,0.2885780930519116,9.85981559753418
3.0727128982543945,-0.0014912587357684,0.0010378202423453,-0.0006727436557412,0.4700870811939239,0.3005016744136822,9.841052055358888
3.0767228603363037,0.0001415274455212,0.001672625541687,-0.0024335924535989,0.4588007926940918,0.296173542737962,9.833895683288574
3.0807108879089355,-0.0009165184455923,-0.000982800964266,0.0004839627072215,0.4597987234592438,0.303364694118501,9.83474349975586
3.0847227573394775,0.0004001671331934,-0.0003373017534613,0.0014961855486035,0.4731740057468414,0.3105328381061566,9.834251403808594
3.0887176990509033,-0.0002924994623754,-0.0005567069165408,3.369711339473731e-05,0.4894397258758545,0.3019460439682019,9.847007751464844
3.092848777770996,-0.0004791336250491,0.0002973061054944,0.0007820576429367,0.4882973730564117,0.3168463110923779,9.868024826049805
3.09684681892395,0.001360117807053,0.0010438505560159,0.0015659583732485,0.4713848829269409,0.2885515689849866,9.850579261779783
3.1007087230682373,0.0004350269446149,0.0003985092043876,-0.0005221264436841,0.476170539855957,0.2870635390281689,9.837997436523438
3.1047656536102295,-0.0016677221283316,-0.0001292014494538,0.0002880515530705,0.4811097979545593,0.2981071472167981,9.841134071350098
3.108715772628784,-0.0011048994492739,-0.0004562195390462,-0.0017490545287728,0.4744378626346588,0.3143548965454114,9.82936954498291
3.112708806991577,-0.0002087063621729,0.0001856116577982,-0.0005054604262113,0.487489104270935,0.319130450487138,9.820289611816406
3.1167588233947754,0.0006837003165856,-0.0004483312368392,0.0005294075235724,0.4821833074092865,0.3182199001312268,9.844854354858398
3.1207520961761475,-0.0012378401588648,-0.0018363948911428,0.0002867598086595,0.4773092567920685,0.3086310029029858,9.841705322265623
3.124743938446045,0.0028185159899294,-0.0018301559612154,0.0005618762224912,0.4825474619865417,0.3014140427112591,9.82863712310791
3.1288468837738037,-0.002579741179943,-0.0016171252354979,0.0015020258724689,0.4863930940628052,0.318173944950105,9.828947067260742
3.132715940475464,-0.0023683137260377,-0.0008746976964175,0.0014924332499504,0.4830620884895324,0.2951917052268994,9.82958698272705
3.1367199420928955,-0.0010238616960123,0.0012614009901881,0.0002737808972597,0.4935336112976074,0.3114199042320263,9.83114242553711
3.1407017707824707,0.0007836114382371,-0.0003422498703002,0.0004163496196269,0.490264892578125,0.3168137371540082,9.85597038269043
3.144711494445801,0.0009313954506069,-0.0007667695172131,0.0014791479334235,0.4803852438926697,0.3043870031833661,9.86120319366455
3.1487977504730225,-0.0003526054206304,0.0002983566373586,0.0013091061264276,0.4867490530014038,0.289885073900224,9.813220977783203
3.152827739715576,-0.0011270233662799,-0.0009819017723202,0.0005993200466036,0.4870307445526123,0.291352301836015,9.819941520690918
3.156700849533081,-0.0021024758461862,-0.0001307846978306,9.752251207828524e-05,0.4927039742469787,0.3066582083702099,9.818233489990234
3.160707950592041,-0.0003956134896725,-0.0016272594220936,0.0001507457345724,0.4757722318172455,0.3008951246738446,9.81454372406006
3.1647257804870605,-1.0111310984939337e-05,0.0005056699737906,-0.0009381249547004,0.4879421591758728,0.3124436736106885,9.832234382629396
3.168731927871704,0.0021294145844876,-0.0014098491519689,-0.0006927279755473,0.4737740159034729,0.3205928206443799,9.837501525878906
3.1727027893066406,-0.0013531036674976,0.0008278936147689,0.000175217166543,0.4881941676139831,0.3229494094848645,9.82597827911377
3.176698684692383,-0.0003113429411314,0.0016758078709244,-0.000399662181735,0.4789023995399475,0.3014530241489422,9.833538055419922
3.1807138919830322,0.0002089926856569,0.0009331628680229,-0.0008342992514371,0.4780810475349426,0.2947036623954785,9.82353973388672
3.1847128868103027,-0.0005617134738713,0.0002976562827825,-0.0014533577486872,0.4765848517417907,0.3090277612209332,9.82313346862793
3.188783884048462,0.0003203480155207,-0.0009842687286436,-0.0007360195741057,0.4619117081165313,0.2990226149559033,9.827484130859377
3.1928486824035645,-0.001958139007911,-0.0015114140696823,0.0010553207248449,0.454604297876358,0.2932770848274243,9.824423789978027
3.196702718734741,0.0009711096645332,-0.0003448044881224,-0.0003334740176796,0.4692534804344177,0.2994745969772351,9.818625450134276
3.2015907764434814,-0.0005007355939596,0.0001193406060338,0.0009964779019355,0.4813237488269806,0.3015870451927197,9.829768180847168
3.2054977416992188,0.0008111814968287,0.0002995356917381,0.0010563293471932,0.4858351051807403,0.2851508259773266,9.827113151550291
3.209505796432495,0.0028560878708958,0.0003972901031374,-0.0011485507711768,0.4699808955192566,0.2970667481422436,9.811915397644045
3.2135140895843506,0.0010164914419874,0.0011381972581148,-0.0020418344065546,0.4670018851757049,0.2851305007934582,9.822547912597656
3.2174980640411377,-0.0006668376154266,0.0004018107429146,-0.001449997536838,0.4729535579681396,0.2913621664047253,9.828485488891602
3.221506118774414,0.0011337799951434,-0.00119140278548,0.001259698998183,0.4781123995780945,0.2908789217472088,9.82548713684082
3.2255160808563232,0.0022714212536811,-0.001620948780328,0.0002618487924337,0.483342707157135,0.2975422143936169,9.811412811279297
3.2295141220092773,-0.0001269261119887,-0.0017311060801148,-0.0011408105492591,0.4767184257507324,0.2966597676277173,9.838338851928713
3.2335140705108643,-0.0009616838069632,0.0013515623286366,-0.0008007064461708,0.4629835188388824,0.3053201138973248,9.856536865234377
3.237497091293335,-3.5451375879347324e-06,0.0009305495768785,-0.0008302191272377,0.4786001145839691,0.3148195445537579,9.82587718963623
3.241497278213501,0.0013973824679851,-0.0005566170439124,-0.0003492906689643,0.4960646033287048,0.3043408095836651,9.84481143951416
3.2495052814483643,-0.0007022185018286,-0.0008750623092055,0.0004750890657305,0.4664302766323089,0.2985241413116467,9.82015609741211
3.2575089931488037,0.0012858405243605,0.0005047423765063,-0.0004538493230938,0.4969592988491058,0.3043082952499402,9.83046054840088
3.261507987976074,0.001413527643308,-0.0006615705788135,0.0001890622079372,0.4714784026145935,0.3033869266510022,9.852888107299805
3.2695021629333496,0.0004708498017862,-0.0009816004894673,0.0005391109734773,0.4819227457046509,0.2808255255222333,9.824869155883787
3.2735049724578857,-0.0015117791481316,-0.0003415998071432,0.0015675746835768,0.4873437285423279,0.2961086928844464,9.816485404968262
3.281497001647949,-0.0001369752571918,-0.0016215164214372,-0.0014593321830034,0.4758994877338409,0.3048893511295331,9.868951797485352
3.285508155822754,0.0008958345861174,-0.0001318426802754,0.000521957874298,0.4723752737045288,0.2938535511493695,9.864786148071287
3.289497137069702,-0.0003034174151252,0.0008244309574365,-0.0002898685634136,0.4795072078704834,0.3043384850025189,9.850221633911133
3.2935869693756104,-0.0003040584560949,0.0002929847687482,-0.0002878475934267,0.4782123863697052,0.323506683111192,9.853995323181152
3.297497034072876,0.0016045614611357,-0.0008806004188954,-0.0005665784701704,0.4766778647899627,0.3282507658004773,9.83877658843994
3.3016271591186523,-0.0001155938953161,-0.0011981232091784,-0.000929613597691,0.479017972946167,0.3109395802021039,9.81103515625
3.3055152893066406,-0.0020734434947371,-0.002824374474585,0.000992577522993,0.4719261527061462,0.3062007725238812,9.815628051757812
3.3095011711120605,-0.0001262346631847,-0.0016589597798883,-0.0011042570695281,0.4738875031471252,0.3052429854869855,9.816522598266602
3.3135364055633545,0.0007834355928935,-0.0003775432705879,0.0003492990508675,0.4697247743606567,0.3019303381443036,9.833884239196776
3.3175082206726074,-0.0005011851899325,-0.000802727881819,0.0002903277054429,0.4690032601356506,0.3138887882232678,9.826716423034668
3.3215363025665283,-0.0010185419814661,-0.0023986278101801,0.0006326111033558,0.4675217568874359,0.2879755198955548,9.812012672424316
3.3255743980407715,-0.0003792326024267,-0.0005629332736134,0.0012525832280516,0.4722831547260284,0.2754229009151471,9.825945854187012
3.329622268676758,-0.0007281273137778,0.0021771816536784,-0.0004611946642398,0.4775002002716064,0.2742645442485821,9.84849452972412
3.333512306213379,-0.0020517776720225,5.087908357381839e-05,0.0015165507793426,0.4869512617588043,0.283748507499696,9.833296775817873
3.3374993801116943,0.0007038108888082,-0.0007983050309121,0.0014177737757563,0.4867836534976959,0.307186543941499,9.828936576843262
3.3415162563323975,1.4606048353016376e-05,-0.0008057248778641,-0.000472298823297,0.4882272183895111,0.3005112707614911,9.828903198242188
3.34561824798584,-0.0020205958280712,-0.0004856931045651,-0.0005075950175523,0.4853237271308899,0.3038419485092175,9.828058242797852
3.3495230674743652,0.0005915135843679,-0.0002768943086266,-0.0018827561289072,0.4705391526222229,0.3043171465396893,9.830022811889648
3.3535091876983643,0.0007141570094972,4.316680133342725e-05,-0.0014574574306607,0.4684587121009826,0.2947793900966656,9.837790489196776
3.357495069503784,-0.0003276578790973,0.0004654135555028,-0.0036619175225496,0.4676505327224731,0.291866332292558,9.829236030578612
3.36149525642395,0.0017654307885095,0.000682326965034,-0.0018226876854896,0.4768200218677521,0.297106444835664,9.817390441894531
3.365497350692749,-0.0001062337541952,5.026068538427344e-05,-0.0007939198985695,0.4714361429214477,0.2932873964309704,9.814813613891602
3.369507074356079,-0.0006301515386439,-0.0010176007635891,-0.0003459537401795,0.4754800796508789,0.3014124333858502,9.820310592651367
3.373504400253296,0.0009486172930337,-0.0015502823516726,-0.0008273459970951,0.465000718832016,0.3019419908523572,9.835017204284668
3.377505302429199,0.0007378628361038,-0.0003712400794029,0.0018361639231443,0.4628013968467712,0.3000517487525952,9.839913368225098
3.381495237350464,-0.0010082550579681,-0.0010120617225766,0.0009501501917839,0.4659511744976043,0.2909774482250226,9.848362922668455
3.3856143951416016,-0.0009300257079303,-0.0013327249325811,0.0002001440152525,0.4741798639297485,0.2909707427024853,9.850944519042969
3.389495372772217,0.0013078200863674,0.0005835266783833,0.0002180598676204,0.457228273153305,0.2899928987026227,9.844887733459473
3.3935112953186035,0.0014921044930815,0.0018645823001861,0.0021268888376653,0.4698966443538666,0.2923856675624859,9.85015869140625
3.397641181945801,-0.0003276833158452,0.0015446441248059,0.0020858156494796,0.4801573157310486,0.2942670583724988,9.830674171447754
3.401555299758911,0.0024012783542275,0.0015378659591078,0.0010272497311234,0.4683597981929779,0.2817946970462811,9.822073936462402
3.405529260635376,0.0010211340850219,-0.0002664104104042,0.0011878693476319,0.471055120229721,0.2904198765754712,9.81667709350586
3.409496307373047,-0.0002042277483269,0.0002628453075885,-0.0002611521631479,0.4825562536716461,0.3043380081653607,9.830562591552734
3.417495012283325,-0.0005592731758952,0.0019582454115152,-0.0012178756296634,0.4782536029815674,0.3001407980918896,9.870803833007812
3.4255120754241943,-0.0009215853642672,-0.000799638684839,0.0004082787781953,0.4795007109642029,0.2952444553375256,9.838822364807127
3.4335150718688965,-0.0005065463483333,-0.001760421320796,7.69607722759249e-05,0.4811355471611023,0.2852219045162213,9.844066619873049
3.437494993209839,-0.002647154033184,-0.0009091850370168,-0.0001646727323532,0.4815928339958191,0.2933376729488385,9.843538284301758
3.4416000843048096,-0.0023887502029538,-0.001444976311177,-0.0018800860270857,0.4789814949035644,0.2918671965599072,9.824994087219238
3.446303129196167,-0.001167502021417,-0.0020413333550095,-3.4999102354047184e-06,0.4766025245189667,0.2940027415752423,9.822765350341797
3.454306125640869,-0.0017842976376414,5.064066499471667e-05,0.0002261810004711,0.4664338231086731,0.2980285584926617,9.809205055236816
3.4583070278167725,-0.0022489950060844,0.0016438951715826,-0.0009337402880191,0.4579285979270935,0.2865535020828259,9.811944961547852
3.4623019695281982,-0.0017963852733373,0.0014338651672005,-0.0002088556066155,0.4824336469173431,0.2799269556999219,9.84162712097168
3.466309070587158,-0.0005061693955212,0.0018609790131449,0.0002766568213701,0.4909046292304992,0.2913739681243908,9.836084365844728
3.4703359603881836,0.0024099571164697,0.000906347297132,0.0012389719486236,0.4840243458747864,0.2942333817482007,9.81861400604248
3.474302053451538,-0.0001462013460695,0.0016494961455464,0.0012225192040205,0.4828504920005798,0.308101683855058,9.812885284423828
3.478317975997925,-0.0013039568439126,0.0019732108339667,0.0015844237059354,0.4843633770942688,0.3129030466079724,9.814216613769531
3.4824271202087402,-0.0016838161973282,0.0010162936523556,0.0027706683613359,0.482910692691803,0.3038920164108288,9.85297679901123
3.486302137374878,-0.0004423695500008,0.0002687480300664,0.001876032911241,0.4787077307701111,0.2942957282066357,9.84362506866455
3.4943020343780518,-0.001288704923354,-0.0003757774829864,-0.0007495759055018,0.4867057800292969,0.3081725537776959,9.83946132659912
3.502418041229248,-0.0012123014312237,0.000686477869749,-0.0017170831561088,0.4924456179141998,0.3048558533191693,9.852198600769045
3.5063140392303467,-0.0005047934246249,-0.0019371062517166,0.0001800945028662,0.4815695583820343,0.305308908224107,9.814051628112791
3.5103111267089844,7.559760706499219e-05,-0.0013300920836627,0.0014365622773766,0.4675459265708923,0.2917782068252575,9.80013656616211
3.518303155899048,-0.0019181354437023,0.0002770200371742,-0.0006320988759398,0.4640302062034607,0.3139122128486645,9.834089279174805
3.522310256958008,0.0006413569208234,-0.0018658516928553,-0.0005012173205614,0.4582896530628204,0.3009324073791516,9.82193374633789
3.526320219039917,0.0011701087933033,-0.0010158936493098,-0.0005229301750659,0.4694279134273529,0.305219352245332,9.81244945526123
3.534316301345825,-0.0011781256180256,-0.0020715110003948,0.002122251316905,0.463502287864685,0.3090825080871594,9.820316314697266
3.538311243057251,-0.000467807840323,0.0012134285643696,0.0011281846091151,0.4669726192951202,0.3028802275657666,9.83694553375244
3.542299270629883,0.0012523368932306,0.0012194840237498,-0.0012786360457539,0.4638856053352356,0.3101258873939526,9.85657787322998
3.5462992191314697,-0.0006502650794573,0.001326504163444,-0.0009965635836124,0.4570558667182922,0.3067585527896893,9.85303020477295
3.550321340560913,-0.0025783495511859,0.0018647452816367,0.0017324560321867,0.4592375457286834,0.3119813799858105,9.834745407104492
3.554307222366333,0.0003030208172276,-0.0005613989196717,0.0019496455788612,0.4724602699279785,0.3082157373428357,9.85539436340332
3.5583112239837646,0.0003356937086209,0.0013374034315347,-0.0001894030719995,0.4659790694713592,0.3029488027095807,9.860910415649414
3.5623042583465576,0.0024036196991801,0.0004948293790221,0.0011182315647602,0.4738726913928985,0.301537483930589,9.867777824401855
3.5663022994995117,0.0011903229169547,0.0007879566401243,-0.0006344141438603,0.4754598736763,0.2981913387775433,9.87253475189209
3.5703141689300537,-0.0007275402313098,-0.0008971239440143,-0.0001435885205864,0.4737856984138489,0.3024476468563092,9.85203742980957
3.5743303298950195,0.0010002807248383,-0.0017498438246548,0.000433649867773,0.4715428054332733,0.2999839484691632,9.830622673034668
3.578320264816284,-0.0010835046414285,-0.0011052647605538,0.0017841169610619,0.4755047857761383,0.2989767491817486,9.807132720947266
3.5823001861572266,5.5984361097216606e-05,-0.0004678349941968,0.0008928487077355,0.4741711914539337,0.304274231195451,9.823813438415527
3.5863001346588135,-0.0002090428606607,-0.0010023359209299,-0.0004812497645616,0.472716748714447,0.3085950314998639,9.822484016418455
3.590299129486084,-0.0011525324080139,0.000380297191441,-0.0001323167234659,0.4757614433765411,0.3014247715473187,9.827618598937988
3.5943143367767334,-0.0003495176497381,0.0007027387619018,0.0014331652782857,0.4894246459007263,0.2942802906036389,9.84769344329834
3.5984323024749756,-0.0010974782053381,0.0008146250620484,-0.0013978583738207,0.4866634011268616,0.2852616310119641,9.850183486938477
3.602307081222534,-0.0001988399890251,0.0011275215074419,-0.0002747811377048,0.505510687828064,0.3015149831771863,9.8556547164917
3.6062991619110107,-0.0011332865105941,0.0016675367951393,0.0002934029325842,0.511866569519043,0.3033913969993603,9.83252239227295
3.6183202266693115,-8.749304106459022e-05,-0.0019594635814428,-5.895085632801032e-05,0.4690928757190704,0.3037593066692364,9.802099227905272
3.6224591732025146,-0.00048827403225,-0.0001444388180971,0.0004853047430515,0.4824642241001129,0.3109949231147778,9.826904296875
3.630305290222168,0.0007619049283675,0.001234047114849,-0.0002064490690827,0.4889640212059021,0.2960979938507092,9.80901050567627
3.6343131065368652,-0.0001638764515519,0.0026159640401601,0.0006756410002708,0.4934628307819366,0.3157354295253766,9.814516067504885
3.638303279876709,0.0001307117054238,0.0010202266275882,3.148894757032382e-05,0.4947279989719391,0.3225096166133893,9.835941314697266
3.642303228378296,0.0003670539008453,0.0013491902500391,0.0006594499573111,0.4879594147205353,0.3124898672103894,9.845308303833008
3.6471052169799805,0.0020401109941303,-0.0008752723224461,0.0005609570071101,0.4851914942264557,0.3087691068649304,9.838471412658691
3.65510630607605,-0.0005421072710305,-0.0012080767191946,0.0019777743145823,0.4748481214046478,0.2836810350418103,9.815335273742676
3.6590993404388428,0.0016110534779727,0.0009146844968199,-0.0003434531390666,0.4761071503162384,0.2946808338165295,9.810895919799805
3.6639211177825928,0.0010201438562944,-0.0006162733770906,-0.0009038774296641,0.4872833788394928,0.2952036857604992,9.830862998962402
3.6679162979125977,0.0001861681230366,0.0019751377403736,-0.0013576261699199,0.4818419218063354,0.3009296059608471,9.823588371276855
3.671917200088501,0.0010438612662255,-0.0011059856042265,-0.0011685686185956,0.4809057116508484,0.2990677356719983,9.837406158447266
3.675922155380249,-0.0001503733219578,-0.0016489215195178,-0.0017616357654333,0.4819750785827636,0.2875273525714886,9.826552391052246
3.679896116256714,0.0021986982319504,0.0016544423997402,-0.0016468055546283,0.4674428403377533,0.2994084358215344,9.796860694885254
3.6839182376861572,0.000446418125648,-0.0003610244020819,-8.203554898500438e-05,0.470615416765213,0.300013840198518,9.8435697555542
3.687901258468628,0.0017422542441636,-0.0004797587171196,-0.0023640785366296,0.4716460704803467,0.3139267265796673,9.845895767211914
3.6919102668762207,3.6220066249370575e-05,-0.0004687188193202,0.000248784199357,0.4651617705821991,0.3038828670978558,9.851407051086426
3.696019172668457,-0.000291159551125,0.0014467574656009,0.0001513343304395,0.4783270359039306,0.2942540049552929,9.83232593536377
3.700805187225342,-0.0002766109537333,0.0012517608702182,0.0001200474798679,0.4844155609607696,0.2899990677833569,9.81785774230957
3.704721212387085,0.0003592469147406,-0.0010003447532653,0.0004538837820291,0.4909262359142303,0.2942618727684033,9.836163520812988
3.708709239959717,-0.0029642363078892,6.252340972423551e-05,-0.000173614360392,0.4915929138660431,0.2994737625122082,9.815585136413574
3.7127151489257812,-0.001045580022037,-0.0014287885278463,-0.0001350957900285,0.4855203330516815,0.2841701507568371,9.819662094116213
3.716703176498413,-1.1272612027823923e-05,-0.0001530153676867,-0.0009183436632156,0.4871348440647125,0.2899228334426892,9.82437801361084
3.720700263977051,0.0006895132246427,0.0010127108544111,-0.0021205423399806,0.476604551076889,0.2966248989105237,9.824243545532228
3.7247121334075928,-0.0001821332843974,0.0012378301471471,0.0002491567283868,0.4812183082103729,0.2866208851337445,9.846060752868652
3.7327191829681396,0.0019521422218531,0.0006938874721527,-0.0027020955458283,0.4755945801734924,0.3052709400653851,9.835712432861328
3.7407121658325195,0.0006434012320823,0.000807162374258,-0.0005212919786572,0.4656266570091247,0.288112670183183,9.864315032958984
3.7447142601013184,0.0007513864547945,0.0002765357494354,-0.0005202190950512,0.4614391028881073,0.2962136864662182,9.854907035827637
3.752702236175537,0.0014605992473661,-0.0017443033866584,0.0013700448907911,0.4706932008266449,0.281730502843858,9.80733585357666
3.760697364807129,0.000422136276029,0.0003851931542158,-0.0008420031517744,0.4701500535011291,0.2966210544109356,9.830342292785645
3.764730215072632,-0.0005317316390573,0.0030520977452397,-0.0007052598521113,0.4630033671855926,0.3032986521720898,9.81820583343506
3.768709182739258,-0.0009572104900144,0.0009219394996762,-0.0005796374753117,0.4660198390483856,0.3017728924751294,9.783699989318848
3.7727012634277344,-0.0027170663233846,0.0024110404774546,-0.0023348098620772,0.4835642874240875,0.3128169476985943,9.804591178894045
3.77683424949646,-0.0018635534215718,-0.0003500338643789,-0.0021478105336427,0.4862566888332367,0.3214607238769543,9.812596321105955
3.784708261489868,-0.0007142734830267,0.0002931598573923,0.0001496570184826,0.4664662182331085,0.3061310946941388,9.80811595916748
3.788698196411133,-0.0007854308350943,0.0002931486815214,0.0011118222028017,0.4650835394859314,0.2932574450969708,9.822516441345217
3.7968502044677734,-0.000852208584547,7.720943540334693e-05,-0.0006945384666323,0.4822781085968017,0.2970899641513836,9.821416854858398
3.804708242416382,0.0004759173025377,0.0003026230260729,0.0006298152729868,0.4726706743240356,0.3057562708854687,9.84618854522705
3.8087050914764404,0.0016168537549674,0.000726287253201,-0.0001579755917191,0.4804612994194031,0.3115190267562878,9.85019874572754
3.8128292560577393,-0.0009332698537036,0.0007280502468347,4.3386593461036594e-05,0.4890362918376922,0.2947539091110241,9.84940242767334
3.816706895828247,-0.0014493863563984,-0.0006549684330821,0.000384772196412,0.4603524208068847,0.2918705940246594,9.84954071044922
3.8207108974456787,-0.0006570603582076,-0.0004490641877055,-0.0011326428502798,0.4743466973304748,0.299993693828584,9.840893745422363
3.8287079334259033,-0.0008299215114675,0.0002927975729107,-0.0002730218693614,0.4693860709667206,0.2966198623180401,9.835877418518066
3.8326966762542725,0.0017415641341358,-0.000228221528232,0.0002678241580724,0.4860519170761108,0.2999787628650677,9.83279800415039
3.836841106414795,0.0004726376500912,0.000513706356287,0.0005247937515377,0.4806292653083801,0.2946909368038189,9.828256607055664
3.844712972640991,0.0016964806709438,-0.0002264929935336,0.0019723600707948,0.4594892859458923,0.2932502925395978,9.826162338256836
3.852713108062744,-0.0002431297325529,-0.0006599398329854,-0.0014697555452585,0.4728742241859436,0.2861016094684613,9.839048385620115
3.8606998920440674,-0.0012354798382148,-0.001086801290512,0.0003767944872379,0.4698300957679748,0.3138451874256146,9.83334255218506
3.868705987930298,-0.0004736655391752,0.0004084724932909,0.0009857853874564,0.4771991372108459,0.3080931305885327,9.826948165893556
3.876699924468994,0.002279327949509,-0.0008692238479852,0.0004643369466066,0.4770640432834625,0.2970774471759808,9.822628021240234
3.8807129859924316,-0.0011820994550362,-0.0017244163900613,-0.0011121239513158,0.4723509550094604,0.308021277189256,9.79843807220459
3.8886959552764893,0.0003194202436134,-0.0007664989680051,-0.0007434524595737,0.473450243473053,0.305712014436723,9.828461647033691
3.892738103866577,0.0007171402103267,-0.00055622914806,-0.0015038819983601,0.4797814488410949,0.3042771816253674,9.831575393676758
3.9006969928741455,-0.0018495484255254,-1.943483948707568e-05,0.0010377848520874,0.4932487905025482,0.2999877333641064,9.832983016967772
3.9087209701538086,-0.0003596768074203,0.0004018237814307,0.0009822715073823,0.4804488122463226,0.2922553122043622,9.81100368499756
3.912710666656494,0.0021891687065362,-0.0002327784895896,0.0007833605632185,0.4676719605922699,0.3032979071140301,9.814864158630373
3.9168219566345215,-0.0001594173954799,-0.0019321879372,0.0007688449695706,0.4796996712684631,0.3128477632999432,9.816275596618652
3.924715280532837,-0.0013735929969698,-0.0020351223647594,-0.0005589555948972,0.4789153933525085,0.2855528295040143,9.821763038635254
3.9327046871185303,-0.0002218785521108,-0.0008689011447131,-0.0010393466800451,0.4881473779678345,0.3142917156219494,9.824560165405272
3.940700054168701,0.0001204900909215,0.0006163446232676,-0.000314362347126,0.4724738597869873,0.3110418021678937,9.854235649108888
3.9447081089019775,0.0018451900687068,0.0032778270542621,0.0002557775005698,0.4746516942977905,0.3071997463703168,9.847984313964844
3.952699899673462,-0.0025080970954149,-0.0010897330939769,0.0006390698254108,0.4765756726264953,0.2937525212764752,9.822266578674316
3.9566969871520996,-0.0007290184730663,-0.0028966646641492,-0.0002724369987845,0.4673597514629364,0.3008893430233014,9.819133758544922
3.96474289894104,0.0007633951026946,0.0010417494922876,-0.0002314047887921,0.4630783796310425,0.3047198951244366,9.81974983215332
3.9727048873901367,0.0001917579211294,0.00019515119493,0.0016024354845285,0.462083101272583,0.2913489341735852,9.83175563812256
3.977504014968872,-0.000535218452569,0.0003861095756292,0.0001908615231513,0.4759073257446289,0.3030686080455792,9.80250072479248
3.9814939498901367,0.0024235264863818,-2.6251189410686645e-05,-0.0012409752234816,0.4754867255687713,0.2979670763015759,9.79211139678955
3.989492893218994,0.0030590323731303,0.0008319988846778,0.0013909926638007,0.4805805385112762,0.2900143265724194,9.86593246459961
3.9935030937194824,0.0013342354213818,-0.0002343645319342,0.0008174590766429,0.4913918972015381,0.2914255857467663,9.86073398590088
3.9976179599761963,-0.0006674188771285,-0.0010829963721334,0.0014245919883251,0.4874463677406311,0.3061904311180127,9.831725120544434
4.005502939224243,-0.0005705970106646,-0.0009752106852829,0.0012081861495971,0.4808872640132904,0.2985991835594189,9.862053871154783
4.009494066238403,0.0004316843696869,0.0012521101161837,-0.0004322193562984,0.4773942530155182,0.3028271496295941,9.831656455993652
4.017492294311523,0.0015073120594024,-0.000661660451442,-0.0002535711973905,0.47845658659935,0.2989785373210919,9.821572303771973
4.025503396987915,-0.0033426110167056,0.0019997861236333,0.0009822435677051,0.473791629076004,0.2985184490680707,9.824113845825195
4.029500484466553,9.290059097111224e-05,-0.0010891053825616,-0.0010502981022,0.4860921800136566,0.2999106645584118,9.807924270629885
4.033512592315674,-0.0009669928112998,-0.001519326120615,-0.0010141059756278,0.4714753031730652,0.303261846303941,9.813220024108888
4.037493467330933,-0.0020054953638464,-0.0012957844883203,-0.0001249043270945,0.4616416096687317,0.2989498674869549,9.806896209716797
4.041504383087158,-0.0018476713448762,-0.0001277886331081,0.0011468259617686,0.4680637419223785,0.31187403202057,9.812357902526855
4.049500465393066,0.0017506987787783,-0.0003413297235965,0.0003616288304328,0.463420033454895,0.3018319308757794,9.826470375061035
4.057496547698975,0.001283963327296,-0.0002378644421696,-0.0005648676306009,0.4694971740245819,0.3095212876796734,9.825199127197266
4.061524391174316,-0.0010248613543808,0.0003009038046002,0.000267039053142,0.4659139811992645,0.3114530742168439,9.831084251403809
4.069512367248535,0.0003302298719063,-0.0006626555696129,-0.0004229871556162,0.4618808329105377,0.3056593835353863,9.813069343566896
4.073510408401489,0.0008985033491626,-0.0003496631979942,-0.0023605087772011,0.4725030660629272,0.3057417273521435,9.84179973602295
4.077514410018921,-0.0001067991252057,-0.0009847236797213,-0.0006124433130025,0.461054116487503,0.2942945659160626,9.855628967285156
4.081631422042847,-0.0004502805822994,0.0004818458110094,0.0014481646940112,0.4766742289066314,0.3105840086936963,9.852107048034668
4.089492559432983,-0.0022327094338834,-0.0011230483651161,-0.0005040308460593,0.4681046903133392,0.3080853521823895,9.815253257751465
4.093504428863525,-0.0001505754189565,-0.001223178114742,0.0011253552511334,0.4683244824409485,0.3114241659641278,9.808077812194824
4.101527690887451,0.0011633855756372,-0.0019759265705943,-0.0008392110466957,0.4709100723266601,0.2999421060085309,9.81324863433838
4.109492540359497,0.0015950377564877,-0.0002716751769185,-0.0007513547316193,0.4857501983642578,0.3037782311439526,9.81319522857666
4.11352801322937,0.0023056415375322,-0.0005853190086781,0.0012453608214855,0.4860806763172149,0.2985059022903454,9.809364318847656
4.121495008468628,-0.0002850525488611,0.0016484083607792,0.0005791578441858,0.4742926061153412,0.2914699018001568,9.842249870300291
4.125638961791992,0.0010579829104244,-0.0016492726281285,0.0021429462358355,0.4841810464859009,0.2827754914760602,9.83572483062744
4.1335108280181885,-0.0016188396839424,-0.0009048767387866,0.0017093415372073,0.4789867401123047,0.3038879930973065,9.8511381149292
4.13749885559082,0.0002468219608999,0.0001590251922607,0.0003580665215849,0.4763812124729156,0.3038125932216656,9.83220386505127
4.145490884780884,-0.0023233506362885,-0.0004823608323931,-7.825437933206553e-05,0.4925501942634582,0.3009423017501843,9.82918643951416
4.153512954711914,-0.0008214104454964,-0.0001675570383667,7.872097194194796e-05,0.4565207362174988,0.3171572387218487,9.813720703125
4.1614978313446045,-0.0003908033249899,-0.0005791531875729,0.0032580131664872,0.478058248758316,0.3147750496864331,9.812498092651367
4.165506839752197,0.0003989660181105,0.0016314778476953,0.0010937191545963,0.4818780422210693,0.3050948083400738,9.785138130187988
4.169612884521484,0.0008722837665118,-0.0015398361720144,2.120342105627079e-05,0.4777556955814361,0.3037538528442395,9.803936004638672
4.173521280288696,-0.0022376158740371,0.0010092472657561,-0.0006196526810526,0.4830560386180877,0.3071315884590161,9.81759548187256
4.177491903305054,0.0009642362711019,0.0011151554062962,-0.0004160804674029,0.485812097787857,0.3139261007308972,9.853726387023926
4.185492038726807,-0.0004528702411334,0.0001618359237909,0.0015539992600679,0.4748263657093048,0.3119824230670941,9.841753959655762
4.1894919872283936,0.0013091899454593,0.0009035980328917,0.0002089599147439,0.4685674607753753,0.3070879280567181,9.801421165466309
4.193618059158325,0.0030757111962884,0.0009017195552587,-0.0009201373904943,0.4664576053619385,0.2994644045829785,9.82303237915039
4.197618007659912,-0.0001691132201813,0.0021829223260283,0.0007948167622089,0.4584461748600006,0.2948006987571728,9.851475715637209
4.201574087142944,-0.00072538619861,5.27193769812584e-05,7.29123130440712e-05,0.4679245054721832,0.3038596510887158,9.84824562072754
4.205492973327637,-0.0001117333304136,0.0009088804945349,0.0020730313844978,0.4821326732635498,0.3158277571201336,9.845306396484377
4.209502935409546,-0.0005059582763351,0.0007970090955495,6.254017353057852e-05,0.4794150292873382,0.3047938048839581,9.836343765258787
4.213510990142822,-0.0032676700502634,0.000264392234385,0.0002723224461078,0.4773679375648498,0.2995822131633771,9.85888385772705
4.217485427856445,0.0007679600385017,-0.0005868142470717,1.972820609807976e-05,0.4678255617618561,0.2967097759246838,9.85972023010254
4.221494197845459,0.0002769056591205,0.0001545883715152,-0.0017756316810846,0.47853684425354,0.2885608077049267,9.851704597473145
4.2294933795928955,-0.0018256562761962,-0.0002691810950636,-0.0010578390210866,0.4849625825881958,0.3085921704769147,9.830906867980955
4.233508348464966,-0.0010151838650926,-0.0007987190037965,0.0006123445928096,0.4818237721920013,0.2999819517135632,9.83627700805664
4.241486310958862,-0.0023029379080981,-0.0015405840240418,0.0004540951922535,0.4796348214149475,0.3024038672447217,9.842558860778809
4.24948525428772,0.0004496390465646,0.001329980790615,2.5012530386447744e-05,0.4870603680610657,0.296682119369508,9.848995208740234
4.253533363342285,-0.000924426363781,-0.000372608192265,0.0002938285470008,0.4783579707145691,0.2904153466224682,9.833577156066896
4.257485389709473,-0.0018145299982279,-0.0022907638922333,-0.0007331622764468,0.477141797542572,0.2784644365310681,9.839375495910645
4.2616212368011475,-0.0017040914390236,-0.0003733001649379,-0.0006374716758728,0.4732543528079986,0.2808456420898449,9.838074684143066
4.265497207641602,-0.0011457968503236,5.398783832788469e-05,8.82912427186966e-05,0.4769341945648193,0.2918688356876385,9.833647727966309
4.269489288330078,0.0018944747280329,0.0022927308455109,0.0016720979474484,0.479592889547348,0.2933061122894299,9.841161727905272
4.277494430541992,0.0007386768120341,0.0007960041984915,-0.0008340030908584,0.4676921963691711,0.2986116707324994,9.8558931350708
4.281485080718994,-0.001276317751035,0.0018607741221785,-0.0005532633513212,0.4635718464851379,0.2899752855300915,9.847970008850098
4.28548526763916,-0.0002456547517795,0.0002717915922403,0.0014352537691593,0.4749938547611236,0.3009423315525067,9.833207130432127
4.289487361907959,-0.0027494742535054,0.0009098062291741,0.0026953928172588,0.4806838631629944,0.2985138893127453,9.818678855895996
4.297486305236816,-0.0008563045412302,0.0015514260157942,0.0022022053599357,0.466191679239273,0.3042136132717145,9.802013397216797
4.305505275726318,0.0002257994492538,0.0005817888304591,-0.000284475274384,0.4706489741802215,0.3028809726238263,9.845301628112791
4.30949330329895,-0.0020568848121911,0.0019652945920825,-0.0014848262071609,0.4585284888744354,0.3028799891471875,9.840964317321776
4.313652276992798,0.0015240574721246,-0.0014387904666364,0.0003121048212051,0.4707677066326141,0.3024398386478436,9.848644256591797
4.325489282608032,-0.0025355315301567,-0.0018598614260554,-7.041823118925072e-05,0.4870937764644623,0.2966083288192761,9.823229789733888
4.3294901847839355,-0.0021118668373674,-0.0022899373434484,-8.717458695173235e-05,0.4760635793209076,0.2899538874626172,9.836503028869627
4.3335113525390625,-0.0019442406482994,-0.0022824304178357,0.0015051583759486,0.4875184595584869,0.2842351198196423,9.848067283630373
4.3414833545684814,0.0011049963068217,0.0005880929529666,0.0005354322493076,0.4807655215263366,0.2999765872955334,9.83397388458252
4.345484256744385,0.0008949647308327,-0.0003679115325212,0.0005417764186859,0.4732550680637359,0.2994581758975995,9.811327934265137
4.353494167327881,-0.0008067551534622,0.0013328567147254,0.0005983375012874,0.4871018528938293,0.2990631461143506,9.849947929382324
4.358294248580933,-0.0006599730113521,0.001781883649528,0.0017312453128397,0.4771744310855865,0.292915850877763,9.87046241760254
4.366302251815796,-0.002123400568962,0.001223892904818,-0.0003263903781771,0.4694502055644989,0.2952262759208691,9.838109970092772
4.374290227890015,-0.0017152230720967,0.0009047035127878,-0.0009616985917091,0.4694235026836395,0.2875900864601147,9.851114273071287
4.378299236297607,-0.0014744567451998,0.0002735471352934,-2.268515527248386e-05,0.4764321744441986,0.2885681092739117,9.859024047851562
4.3830952644348145,0.0002340467763133,8.902233093976968e-05,-0.0005169780924916,0.4623827040195465,0.2856582999229443,9.84796905517578
4.391094207763672,-0.0002826761337928,0.0019716881215572,0.0003669671714305,0.4748049676418304,0.2989771366119397,9.814600944519045
4.395100355148315,-0.0019056459423154,0.0003822958096861,0.0025580003857612,0.4944053888320923,0.3023186028003705,9.81435489654541
4.39922308921814,-0.0019719456322491,0.0009109228849411,0.0007513249292969,0.488791286945343,0.2951972484588635,9.830806732177734
4.403103351593018,0.001506810542196,0.0018645878881216,-0.0002336725592613,0.4836021959781647,0.2994610071182263,9.820006370544434
4.407102346420288,0.0010186160216107,0.0017648143693804,0.0010617589578032,0.4753239452838897,0.2898789346218121,9.814632415771484
4.411896228790283,0.0009772282792255,0.0005366681143641,0.0003415010869503,0.4624274373054504,0.308273643255235,9.80572509765625
4.4158852100372314,-5.194346886128187e-05,0.0017617465928196,0.0007810052484273,0.4625437259674072,0.3047604560852063,9.819786071777344
4.419902801513672,-0.0005836446071043,0.000588871538639,0.0010359100997447,0.4587862193584442,0.2960741817951214,9.823410034179688
4.427902698516846,0.0005500739789567,-0.0002629905939102,-8.546467870473859e-05,0.4676684141159057,0.2951953709125531,9.829216003417969
4.43589973449707,-9.000382851809263e-05,-0.0012218193151056,-0.0002745324745774,0.4817380607128143,0.2985644042491925,9.834388732910156
4.439894676208496,-0.000270454242127,0.0003697527572512,-0.0022971620783209,0.4831133782863617,0.2899037599563611,9.83199691772461
4.443906784057617,0.0006771378684788,-0.0012190635316073,0.0004446301609277,0.4718341529369354,0.307169556617738,9.83809757232666
4.447900772094727,-1.7299142200499773e-05,-0.0010015503503382,0.0017470805905759,0.4714158475399017,0.3129207193851483,9.839984893798828
4.451894760131836,-0.0016337751876562,-0.000574407633394,0.0012697158381342,0.4737264513969421,0.3057817816734326,9.836116790771484
4.455881834030151,-0.0007526222616434,0.0004816642031073,-0.0008889958262443,0.4843538999557495,0.2937684059143078,9.840542793273926
4.45990777015686,-0.0008448625449091,-0.0012202654033899,-0.0004604645073413,0.481123149394989,0.3038419783115399,9.843482971191406
4.4638988971710205,0.0004078351776115,-0.000691991765052,-0.0011477367952466,0.476145327091217,0.3071723580360425,9.837946891784668
4.467897653579712,3.677216591313481e-05,-0.0004633208736777,0.0002417033538222,0.4621115028858185,0.3061644136905682,9.819947242736816
4.471898078918457,0.0018178614554926,-0.0014253524132072,-0.0003497116267681,0.4580810964107513,0.3095250129699719,9.815308570861816
4.475896835327148,-0.0004553721810225,0.000387049280107,0.001321495976299,0.4570252299308777,0.2927667796611798,9.824939727783203
4.479884624481201,-0.000446505844593,0.0019835848361253,0.0016393843106925,0.4652544260025024,0.3028465211391461,9.84132957458496
4.483904838562012,-0.000706072023604,0.0002783853560686,0.0003740629181265,0.4625300765037536,0.3095699548721325,9.844734191894531
4.48790168762207,-0.0014600118156522,0.0002700993791222,8.154660463333127e-05,0.4804052412509918,0.3076543211936963,9.849365234375
4.492800712585449,-0.000293272169074,-0.0010408260859549,-0.0004267338663339,0.4694985449314117,0.2956162393093121,9.84584617614746
4.497601747512817,-0.0001705583417788,-0.0002506179735064,-0.0020317984744906,0.4642729461193084,0.2967439293861401,9.822613716125488
4.505491495132446,-0.0002962622966151,0.0013505481183528,-7.711164653301255e-05,0.4776538908481598,0.3066459298133862,9.826167106628418
4.5094826221466064,-0.0010277254041284,-0.0015194285660982,0.0003839032724499,0.4743666052818298,0.3037772178649914,9.828192710876465
4.513596773147583,0.0005622953176498,-0.0003413269296288,9.999144822359088e-05,0.4826123416423797,0.2851398885250104,9.84335708618164
4.5175089836120605,-0.0001573591143824,0.0006166603416204,0.0007629729807376,0.482181578874588,0.2803557217121136,9.844346046447754
4.52148699760437,0.0017322052735835,0.0008247783407568,5.177780985832204e-05,0.4622149467468261,0.2893893122673047,9.82256031036377
4.52950382232666,0.0007754391990602,-0.0005557625554502,0.0001987470313906,0.4634750783443451,0.300414174795152,9.830628395080566
4.5334999561309814,-0.0006130267865955,-2.469774335622787e-05,3.308802843093872e-05,0.4606910645961761,0.3066464066505444,9.833084106445312
4.537478685379028,-5.786441033706069e-05,0.000298143364489,0.0005482649430632,0.4624702036380768,0.311957508325578,9.842576026916504
4.541481971740723,0.0030583711341023,0.0009384723380208,0.0013937773182988,0.4723575711250305,0.3033042550086987,9.837011337280272
4.545615911483765,0.0012851990759372,-0.0014091646298766,-0.0005643125623464,0.4666643142700195,0.3047354817390454,9.82668113708496
4.5494890213012695,0.0007599162636324,0.0004021748900413,-0.0003357045352458,0.4713898003101349,0.3032902777194989,9.824596405029297
4.553491830825806,0.0008173113455995,0.0006181662902235,0.0012589707039296,0.4652465283870697,0.2965962588787091,9.826742172241213
4.557536840438843,0.0003735767677426,-0.0004480518400669,0.0007456606253981,0.4721227288246155,0.3100416064262402,9.844599723815918
4.5616068840026855,-0.00041651938227,-0.0007614893838763,0.0024794349446892,0.4770034253597259,0.296640604734422,9.847339630126951
4.56559681892395,-0.0003408794582355,-0.0003375597298145,0.0016232561320066,0.4806659817695617,0.277487099170686,9.842927932739258
4.569494962692261,0.0017364541999995,0.0010377736762166,5.234498530626284e-05,0.4838631153106689,0.281354606151582,9.85187530517578
4.573509931564331,-0.0001211712951771,-0.0010926164686679,-0.0012614680454134,0.4753552079200744,0.2885277271270764,9.854575157165527
4.577484846115112,0.0004821442998945,-0.000767451710999,0.0007446287199854,0.4886554479598999,0.2913638949394238,9.83830451965332
4.581478834152222,0.0003796147648245,0.0011511882767081,0.0007433863356709,0.4922854900360107,0.2989360690116894,9.820005416870115
4.585480690002441,-0.0003425826726015,-0.0011901604011654,0.0015185251832008,0.4925133883953094,0.3023076653480542,9.813319206237791
4.589478969573975,0.0007861343910917,0.0011471938341856,0.0005186637863516,0.4850160777568817,0.3051752150058758,9.817869186401367
4.597610950469971,0.0009149512625299,-0.0012908256612718,0.0009374916553497,0.4903773963451385,0.3075797855854046,9.820172309875488
4.601494073867798,0.0004493183805607,-0.0014272048138082,0.0027979342266917,0.4797159433364868,0.3099827170372021,9.81772804260254
4.605479001998901,0.0011238134466111,-0.0001541627570986,0.0010650977492332,0.4660408496856689,0.2990029454231274,9.823476791381836
4.609593868255615,0.0019472471904009,-0.0005810200236737,0.0001834752038121,0.4646329283714294,0.2956418991088879,9.824511528015137
4.625499486923218,0.0005054265493527,0.0017722425982356,-0.001280547119677,0.4795117080211639,0.3180195391178143,9.811981201171877
4.629499673843384,0.0010541538940742,-0.0005912431515753,-0.000748204998672,0.4818663299083709,0.3033693730831158,9.838257789611816
4.633496284484863,2.7852598577737808e-05,0.0006954064592719,3.682915121316901e-05,0.4784664511680603,0.297954171895982,9.796817779541016
4.637482404708862,-0.0008298071334138,5.894713103771209e-05,-3.663823008537293e-05,0.4504565894603729,0.303233325481416,9.80303955078125
4.641494274139404,0.0002881534746848,-0.000790727790445,0.0014146100729703,0.4638905525207519,0.3095219135284436,9.831635475158691
4.6454854011535645,0.0012643414083868,-0.0026042498648166,-0.0009583886712789,0.4826516211032867,0.3224786221981061,9.832873344421388
4.649494409561157,0.0016404679045081,-0.0002629812806844,0.0005125710740685,0.4814045131206512,0.3138018846511853,9.811917304992676
4.658304452896118,-0.000176049361471,-0.0010053589940071,0.0003676628693938,0.4785502254962921,0.3104883134365094,9.825875282287598
4.662296295166016,-0.0013202854897826,-0.0015347972512245,0.0010499572381377,0.4887286126613617,0.3080461323261273,9.815482139587402
4.666288375854492,-0.0023284133058041,-0.0021725357510149,-0.0001947069540619,0.4657459855079651,0.2961210012435925,9.815422058105469
4.674292325973511,-0.0009391146013513,-0.0001548090949654,-0.0001393463462591,0.4695132076740265,0.3162311315536511,9.827147483825684
4.678297281265259,0.0003623802331276,0.0005910033360123,0.0004487968981266,0.4689328074455261,0.308604955673219,9.837693214416504
4.682286500930786,-0.0010305446339771,0.0004852907732129,0.0002904906868934,0.4842140078544616,0.3138110637664807,9.82376766204834
4.690285682678223,0.0020694704726338,-0.0010043890215456,0.0006041452288627,0.4778859317302704,0.3128974139690411,9.833532333374023
4.6942853927612305,0.0001190250040963,-0.0013225185684859,-0.000276893377304,0.4777751564979553,0.3062665462493908,9.843092918395996
4.698421478271484,-0.0018468846101313,-0.0004693018272519,0.0012798011302947,0.4759200811386108,0.2985338866710675,9.83221435546875
4.706297397613525,7.336708949878812e-05,0.002083090133965,0.0013059116899967,0.4802072048187256,0.2971511185169232,9.857348442077637
4.71432900428772,-0.0030727419070899,-0.0026002777740359,-0.0002692965790629,0.4787995815277099,0.3008790314197552,9.818714141845703
4.71829080581665,0.0004591923789121,0.0003806641325354,0.000128517858684,0.4990522265434265,0.2884071171283734,9.809907913208008
4.722296953201294,-0.0003709898737724,0.0002733552828431,0.0007974989712238,0.495450496673584,0.2870031595230115,9.816739082336426
4.726428985595703,-0.0001073110033757,-0.0007871170528233,0.0021741483360528,0.4668325781822204,0.2841027081012738,9.806334495544434
4.734302997589111,0.0009193741716444,0.0008059022948145,0.0011719372123479,0.4696946740150451,0.3028374016284955,9.831961631774902
4.738297939300537,0.0019796723499894,-0.0003648679703474,0.0009216144680976,0.4885650277137756,0.3047035634517682,9.811201095581056
4.742286682128906,0.0017711053369566,-0.0001496952027082,0.0012526772916316,0.4636548161506653,0.3104438483715069,9.810203552246094
4.746403932571411,0.0010231994092464,-0.0019607311114668,0.0011750254780054,0.471025288105011,0.286995977163316,9.816202163696287
4.750313997268677,0.0012447360204532,-0.0017530606128275,-0.0016055209562182,0.4736142158508301,0.2826921045780194,9.821372985839844
4.758301019668579,2.5220622774213552e-05,-0.0006841584108769,3.811530768871316e-05,0.4659116566181183,0.3152861595153821,9.833022117614746
4.762303829193115,0.0011144670424982,0.0001727854833006,0.0006238957867026,0.4638071060180664,0.2937104403972638,9.814655303955078
4.766289949417114,-0.0010620353277772,0.0004907054826617,0.0020728698000311,0.4603830277919769,0.2869863808155072,9.814455032348633
4.770303964614868,0.0012097359867766,7.2116032242775e-05,0.0003024553880095,0.4783421754837036,0.291342616081239,9.832267761230469
4.774285793304443,0.0006480499869212,-0.0019533666782081,-0.0004136813804507,0.4784827828407287,0.305177152156831,9.823144912719728
4.7783026695251465,-0.0026820567436516,-0.0020627211779356,-0.0012528030201792,0.4751779735088348,0.3114165961742413,9.82418441772461
4.782285928726196,-0.0036968193016946,-0.0023803748190402,0.0001677433028817,0.469897985458374,0.3076809048652661,9.850162506103516
4.786296844482422,-0.0007894603768363,0.0011302195489406,0.0012245662510395,0.4820224046707153,0.3009597957134259,9.84263038635254
4.790287017822266,-0.0007970710285007,0.0021990146487951,0.0007965145632624,0.4856143593788147,0.2841718792915356,9.834875106811523
4.794328689575195,-0.0015149300452321,0.0009169559925794,0.0014717164449393,0.476543515920639,0.2875456809997571,9.834704399108888
4.798429012298584,-0.000934659037739,0.0010213488712906,3.534276038408267e-05,0.4888695776462555,0.2918073534965527,9.831896781921388
4.806294679641724,-0.0013954932801425,-0.0005740504711866,-0.0009870454668998,0.4832921922206878,0.2870665490627301,9.84927463531494
4.81029486656189,-0.0017216382548213,-0.0007861643098294,-0.0011866269633173,0.4861572384834289,0.2932581305503857,9.836750984191896
4.814326286315918,-0.0004031368007417,0.000705637037754,-6.633065640926369e-05,0.4784992337226867,0.30756574869156,9.810721397399902
4.81829047203064,-0.0011482220143079,-0.0006766240112483,-3.568362444639198e-05,0.4731272459030151,0.3118914961814892,9.820950508117676
4.822330474853516,-0.002085780724883,0.0005961768329143,0.0004271324723958,0.4698398113250732,0.2985019087791455,9.8368558883667
4.8263022899627686,-0.0028568999841809,0.0001766588538885,0.000122264958918,0.4617429673671722,0.303345173597337,9.825593948364258
4.830292463302612,-0.0022672999184578,-0.0013170912861824,-0.0014842916280031,0.4708772599697113,0.3018319904804242,9.811519622802734
4.8343024253845215,0.000700426287949,-0.0001485785469412,-0.0019158823415637,0.4729846715927124,0.2859570980072033,9.790470123291016
4.83829927444458,-0.0003378834517206,-0.0012108059599995,-0.0012345938012003,0.482485294342041,0.2969973087310803,9.801994323730469
4.84628438949585,-0.0006395389209501,-0.0010002730414271,-0.0006946474313735,0.473943680524826,0.3144347667694104,9.86960792541504
4.850325345993042,4.110869485884905e-05,0.001666011288762,0.0004463717341423,0.4847815632820129,0.3100955486297619,9.864439010620115
4.854284286499023,0.0005867011495865,0.001242833212018,0.0007517393678426,0.4791263341903686,0.3024089336395276,9.85369110107422
4.858288288116455,-0.0004595632781274,-0.000467600300908,-0.0016607353463768,0.4753459692001343,0.3057301640510571,9.841889381408691
4.862374305725098,-0.0016125392867252,0.0004923259839415,-0.0010862741619348,0.4685116708278656,0.3066618144512189,9.83828830718994
4.8663036823272705,-0.0009439925197511,0.0006030146032571,-0.0003666011616587,0.4565469026565552,0.312414348125459,9.839200019836426
4.870291471481323,-0.0009210655116476,-0.0024828757159411,0.0003865147009491,0.4797624349594116,0.3037828505039227,9.83216381072998
4.878334283828735,0.000341368257068,-0.0004727160558104,-0.0004071556031703,0.4693776667118072,0.3095180392265332,9.837635040283203
4.88228440284729,0.0018906486220657,-0.0003555845469236,-0.0015374477952718,0.4721502661705017,0.296966999769212,9.817705154418944
4.886285066604614,0.0014172510709613,0.0011335080489516,7.587578147649751e-05,0.4785458445549011,0.2865335643291485,9.82460880279541
4.895103693008423,0.0013912017457187,0.0016204770654439,0.0019095870666205,0.470627874135971,0.3099462091922772,9.821820259094238
4.899110317230225,0.0033477607648819,0.001136926934123,0.0005377624183893,0.4848665595054626,0.3076328039169324,9.840560913085938
4.90325140953064,0.0039364276453852,0.0011295974254608,-0.0007665576413273,0.4852365255355835,0.3013574481010449,9.824748992919922
4.911078453063965,-0.0005271827685646,-0.0024854745715856,-0.000586474314332,0.4758864641189575,0.2990662455558789,9.856667518615724
4.915083169937134,-0.0001815514988265,0.0016663428395986,0.0001343917101621,0.4742087721824646,0.2999699115753186,9.837151527404783
4.91907811164856,0.0002667850931175,0.0004961052909493,0.0007601976394653,0.4703570604324341,0.2894668281078351,9.849252700805664
4.923101186752319,0.0003500750171951,6.973277777433395e-05,1.017376780509948e-05,0.4691654741764068,0.2966446280479443,9.843120574951172
4.927206039428711,0.0004303411697037,-0.0006711999885737,0.0022469675168395,0.4661856889724731,0.2903715968132031,9.82697868347168
4.931177139282227,-0.0005717191961593,-0.0010958407074213,0.0013228240422904,0.4643310308456421,0.2976059913635266,9.855712890625
4.935107231140137,-0.0011465612333267,-0.0006751045584678,-3.645103424787513e-05,0.46402108669281,0.2894219458103192,9.833222389221191
4.939082145690918,-0.0007647683378309,0.0014515668153762,-0.00122947152704,0.485235184431076,0.2989813387393963,9.82433032989502
4.943091154098511,5.485361907631159e-05,7.833633571863185e-05,0.0008699391037225,0.4884349405765533,0.2955925166606915,9.806113243103027
4.94707727432251,0.0014154281234368,-0.0007797987200319,0.0001889495179057,0.4773274958133697,0.2960440814495099,9.804594039916992
4.951110124588013,-0.0017343403305858,-0.000138665549457,0.0013681482523679,0.4713114500045776,0.3037253618240368,9.810507774353027
4.95510721206665,0.0003773591597564,0.0010286606848239,0.0007541272789239,0.4592956006526947,0.2960950732231152,9.83539867401123
4.959078073501587,0.0005343609373085,-0.0002509430050849,-0.000630447641015,0.455296516418457,0.2899350523948681,9.84359359741211
4.963137149810791,-0.0009511456592008,0.0003871899098157,-0.0004695719107985,0.4652554988861084,0.2985439002513897,9.8408203125
4.967077016830444,-0.000744845252484,0.0020919432863593,-0.0007003601640462,0.4642365872859955,0.2932302951812756,9.826067924499512
4.97108006477356,0.0004970272420905,0.000596729107201,-0.0016991337761282,0.4780177175998688,0.2970914840698254,9.836532592773438
4.975098133087158,0.0020173569209873,0.0006006779149174,-0.0007944647222757,0.4782026410102844,0.2908486425876629,9.828441619873049
4.979079008102417,0.0015968106454238,-0.0002507977187633,-0.0006720265373587,0.4712705612182617,0.3046775460243237,9.80907154083252
4.98310112953186,-0.0007762865279801,-0.0012111412361264,-0.0015409383922815,0.459680438041687,0.320908695459367,9.793703079223633
4.987077236175537,0.0010231677442789,-0.0008846726268529,0.001055265776813,0.4615828990936279,0.3171114027500165,9.806050300598145
4.99110221862793,-0.0023343986831605,-0.0005681347101926,-0.0004206774756312,0.452450156211853,0.3165940940380108,9.792054176330566
4.995077133178711,0.0005673300474882,0.0014473255723714,-0.0027672117576003,0.4561556577682495,0.3055739402771008,9.788640022277832
4.999215126037598,-0.0006706065032631,-0.0005709887482225,-0.0015480769798159,0.4631632566452026,0.2931507527828229,9.796479225158691
5.003096103668213,0.000315569632221,0.0009218333289027,-0.000846866518259,0.4667130410671234,0.2932043373584759,9.815567016601562
5.0110931396484375,0.0004873858415521,-0.0001324955374002,0.0009573269635438,0.4746270775794983,0.3061778247356427,9.834850311279297
5.015078544616699,3.150466363877058e-05,-0.0015153218992054,1.900456845760364e-05,0.4777129292488098,0.2870684266090405,9.853894233703612
5.023101568222046,-0.0007498564082197,0.0012504989281296,-0.0010305177420377,0.4847197234630584,0.2942149043083203,9.835393905639648
5.0270836353302,-0.0016023805364966,0.0003916164860129,-0.0008857231587171,0.4823412001132965,0.3070709109306347,9.834545135498049
5.031087636947632,-0.0004534531326498,-0.0004448937252163,0.0014197463169693,0.4794143736362457,0.3110217154026043,9.849383354187012
5.035088539123535,-8.18370608612895e-06,0.0026308801025152,-0.0008388040587306,0.4790737926959991,0.3062238097190869,9.851399421691896
5.039088726043701,0.0008104342268779,0.002095628529787,-0.0019348664209246,0.4611973762512207,0.3028611540794385,9.846784591674805
5.047077655792236,-0.0016685526352375,0.0008247410878539,0.0001814141869544,0.4704645574092865,0.3157449066638959,9.838774681091309
5.05507755279541,-0.0002992434601765,0.0017820429056882,-0.0001888535916805,0.480620265007019,0.2855611741542828,9.828922271728516
5.059081554412842,-0.0006777452072128,0.0015713889151811,0.00110097322613,0.4832782447338104,0.3018675446510327,9.835952758789062
5.063104629516602,4.701287252828479e-05,0.0003982400521636,0.0005450686439871,0.4882408678531647,0.3023158311843884,9.827204704284668
5.06709361076355,-0.0008362323278561,0.0015684915706515,-0.0002733748406171,0.4792990684509277,0.3138264715671551,9.83177089691162
5.071085691452026,-0.0009878224227577,7.55470246076582e-05,-0.0015460168942809,0.4700059294700622,0.3042792081832898,9.839771270751951
5.075084686279297,0.0004202190903015,-0.0002465909346938,-0.0010633757337927,0.489690214395523,0.2894355654716504,9.840994834899902
5.0790815353393555,-8.98359576240182e-06,-0.0001354860141873,-0.000837150029838,0.469546914100647,0.2913355827331555,9.839345932006836
5.083090543746948,0.001609813189134,-0.0002416912466287,-0.000363272614777,0.4715714752674103,0.2995011806488049,9.842574119567873
5.091103553771973,-0.0011668412480503,0.0010430887341499,0.0022919261828064,0.4602837264537811,0.2865109443664563,9.822514533996582
5.095171689987183,-0.0008911600452847,0.0011438876390457,0.0010046018287539,0.476865142583847,0.297078460454942,9.82997703552246
5.099211692810059,-0.0011017593787983,0.00029525347054,0.0011246781796216,0.4814825057983398,0.2980353832244885,9.839356422424316
5.103090286254883,-0.0026915238704532,-0.0026878733187913,0.0014007142744958,0.4720167517662048,0.2999632060527814,9.842107772827148
5.107077598571777,0.001156085403636,-0.0008755601011216,0.001681278925389,0.4816856384277344,0.2999722063541424,9.845091819763184
5.111077547073364,0.0012761992402374,7.625576108694067e-05,-0.000775215215981,0.487997829914093,0.2961521148681653,9.847237586975098
5.115082025527954,0.0026987106539309,-0.0017310776747763,0.0002402504906058,0.499100923538208,0.3047012388706219,9.823887825012209
5.123142957687378,0.0013746293261647,-0.0009898180142045,0.0015781708061695,0.4836732745170593,0.3118493258953106,9.846518516540527
5.131090879440308,-0.0009853658266365,-0.0008766972459852,0.0013319072313606,0.4844014048576355,0.3166617751121533,9.826727867126465
5.135907888412476,0.0011021847603842,0.0002898043021559,0.001375965308398,0.4741286635398865,0.3135333359241498,9.840858459472656
5.139895915985107,-0.0006890209624543,0.0004003047943115,0.0007877377793192,0.4603655040264129,0.3042645752429974,9.837732315063477
5.143893003463745,-0.0010133960749953,-0.0004522986710071,0.0006938641890883,0.4664719700813293,0.3090329170227063,9.834619522094728
5.147897958755493,0.0005356876645237,-0.0006613908335566,0.002235110849142,0.4501863121986389,0.310924828052522,9.820898056030272
5.155894041061401,0.0020291253458708,-0.0002331994473934,0.002285836264491,0.4560895562171936,0.3027691245079053,9.812602996826172
5.159976959228516,0.00013199809473,-0.0002408800646662,1.2361444532871277e-05,0.475511372089386,0.2941969931125653,9.833368301391602
5.163914680480957,0.0023368841502815,0.0009288089349865,-0.0009261611849069,0.4680961668491363,0.2985219061374676,9.84032917022705
5.171911954879761,6.447703344747424e-05,-0.001310278661549,-0.0018990477547049,0.4745549261569977,0.2970339655876172,9.820028305053713
5.179893970489502,7.539597572758794e-05,-0.0011962004937231,0.0012961011379957,0.4787207841873169,0.3055237829685223,9.777341842651367
5.1838929653167725,0.0031533921137452,-0.0003444449976086,0.0010712686926126,0.4775948226451874,0.3027624487876904,9.811302185058594
5.187893867492676,0.0018686121329665,-0.0019404599443078,0.0008053537458181,0.4647793769836426,0.2875224947929394,9.840450286865234
5.195898056030273,-0.0010614695493131,-0.0001359535381197,-0.0004748618230223,0.4809660613536834,0.3004423379898083,9.838424682617188
5.203900098800659,-0.0018048880156129,-0.001201435457915,-0.0005532586947083,0.4690788388252258,0.3018220663070691,9.827377319335938
5.211910724639893,0.0008533319924026,-0.0015223082154989,-0.0007556639611721,0.4825041592121124,0.2917869687080395,9.828330039978027
5.215959787368774,0.0003109789686277,0.0002914778888225,-0.0009526358917355,0.4733138680458069,0.2845961153507245,9.825366020202637
5.2199108600616455,0.0008301489870063,7.511209696531278e-05,-0.0013977196067571,0.4632076621055603,0.28311586380005,9.810930252075195
5.223904848098755,0.0001328766811639,-0.0003545517101883,7.330439984798475e-06,0.4626211822032928,0.3027208149433148,9.808952331542969
5.227919816970825,-0.0018955528503283,0.0010381573811173,-0.0004435563459992,0.4840303063392639,0.3037742376327527,9.831527709960938
5.231908082962036,-0.0006607141694985,0.0024247867986559,0.0016298894770443,0.4739322364330292,0.3042730391025555,9.841973304748535
5.23591685295105,-0.0010405429638922,0.0005128169432282,0.0026116538792848,0.4636661410331726,0.2966407537460339,9.849099159240724
5.243907928466797,-0.0008060639956966,-0.0005510547198355,0.0004650140181183,0.4781137704849243,0.2946459352970135,9.8252534866333
5.251897811889648,-0.0006837217952124,0.0009417841210961,0.0008824318647384,0.4863118529319763,0.3133578002452862,9.84017276763916
5.259906768798828,-0.0024997303262352,0.0013639442622661,0.0006315428763628,0.468982458114624,0.3095107674598706,9.837493896484377
5.267904758453369,-0.0008804688113741,0.0025364803150296,0.001310630235821,0.4733422100543976,0.3113743066787732,9.81298542022705
5.271902084350586,0.0007592745823785,0.0005129417404532,-0.0002402076497673,0.4848982691764831,0.312426805496217,9.840596199035645
5.275901794433594,0.0018346833530813,-0.0015091467648744,-0.0001614606007933,0.4814221560955047,0.3129448592662823,9.86324405670166
5.279885768890381,0.000423680699896,0.0005054008215665,-0.0008564442396163,0.4908736050128937,0.3067558109760296,9.87298583984375
5.283910751342773,-0.000208981684409,0.0027400059625506,-0.0007390407845377,0.4729661643505096,0.2966286838054669,9.854549407958984
