timestamp,angular_velocity.x,angular_velocity.y,angular_velocity.z,linear_acceleration.x,linear_acceleration.y,linear_acceleration.z
0.7413160800933838,-0.0034906584769487,0.0,0.0,-0.0882598459720611,-9.208444595336914,0.3432327508926391
0.7463192939758301,0.0,0.0,0.0,-0.107873149216175,-9.188830375671388,0.3432327508926391
0.7513222694396973,-0.0052359877154231,0.0,0.0,-0.107873149216175,-9.188830375671388,0.3236194550991058
0.7563266754150391,0.0,-0.0017453292384743,0.0,-0.0882598459720611,-9.188830375671388,0.3432327508926391
0.7613298892974854,-0.0052359877154231,0.0,0.0034906584769487,-0.0882598459720611,-9.208444595336914,0.3040061295032501
0.7663328647613525,-0.0034906584769487,0.0,0.0034906584769487,-0.107873149216175,-9.208444595336914,0.3628460466861725
0.7713360786437988,-0.0034906584769487,-0.0017453292384743,0.0,-0.0882598459720611,-9.188830375671388,0.3236194550991058
0.7763404846191406,-0.0017453292384743,0.0017453292384743,0.0,-0.107873149216175,-9.169217109680176,0.3432327508926391
0.7813436985015869,0.0,-0.0017453292384743,0.0,-0.107873149216175,-9.208444595336914,0.3432327508926391
0.7863466739654541,-0.0017453292384743,0.0,-0.0017453292384743,-0.107873149216175,-9.208444595336914,0.3432327508926391
0.7913501262664795,-0.0017453292384743,0.0,0.0017453292384743,-0.0882598459720611,-9.208444595336914,0.3432327508926391
0.7963542938232422,-0.0034906584769487,0.0,0.0,-0.0882598459720611,-9.208444595336914,0.3432327508926391
0.8013577461242676,-0.0017453292384743,0.0052359877154231,0.0034906584769487,-0.107873149216175,-9.208444595336914,0.3628460466861725
0.8063607215881348,0.0,0.0,0.0052359877154231,-0.127486452460289,-9.208444595336914,0.3040061295032501
0.811363935470581,0.0,0.0017453292384743,0.0,-0.0882598459720611,-9.208444595336914,0.3628460466861725
0.8163681030273438,-0.0052359877154231,0.0,0.0,-0.0882598459720611,-9.188830375671388,0.3236194550991058
0.8213715553283691,-0.0017453292384743,-0.0034906584769487,0.0,-0.107873149216175,-9.228057861328123,0.3236194550991058
0.8263747692108154,-0.0052359877154231,0.0,0.0,-0.0882598459720611,-9.188830375671388,0.3432327508926391
0.8313789367675781,-0.0017453292384743,0.0,0.0034906584769487,-0.107873149216175,-9.208444595336914,0.3628460466861725
0.8363821506500244,-0.0017453292384743,0.0,0.0,-0.107873149216175,-9.208444595336914,0.3628460466861725
0.8413851261138916,-0.0034906584769487,-0.0017453292384743,0.0017453292384743,-0.0686465501785278,-9.228057861328123,0.3432327508926391
0.8463892936706543,-0.0017453292384743,0.0034906584769487,0.0,-0.107873149216175,-9.188830375671388,0.3432327508926391
0.8513922691345215,-0.0034906584769487,0.0,0.0,-0.107873149216175,-9.188830375671388,0.3432327508926391
0.8563954830169678,0.0,-0.0017453292384743,0.0017453292384743,-0.107873149216175,-9.188830375671388,0.3628460466861725
0.8613989353179932,-0.0034906584769487,0.0,0.0017453292384743,-0.0882598459720611,-9.188830375671388,0.3236194550991058
0.8664031028747559,-0.0034906584769487,0.0,0.0,-0.0686465501785278,-9.208444595336914,0.3236194550991058
0.8714063167572021,0.0,-0.0034906584769487,0.0,-0.0882598459720611,-9.188830375671388,0.3236194550991058
0.8764092922210693,0.0,0.0,0.0017453292384743,-0.0686465501785278,-9.208444595336914,0.3628460466861725
0.8814122676849365,-0.0069813169538974,0.0,0.0,-0.107873149216175,-9.188830375671388,0.3628460466861725
0.8864166736602783,-0.0017453292384743,0.0,0.0,-0.0686465501785278,-9.188830375671388,0.3236194550991058
0.8914198875427246,0.0,0.0,0.0017453292384743,-0.0882598459720611,-9.169217109680176,0.3236194550991058
0.8964231014251709,-0.0052359877154231,0.0,0.0,-0.107873149216175,-9.188830375671388,0.3432327508926391
0.9014272689819336,-0.0034906584769487,0.0052359877154231,0.0,-0.0882598459720611,-9.188830375671388,0.3628460466861725
0.9064304828643799,0.0,0.0034906584769487,-0.0034906584769487,-0.107873149216175,-9.208444595336914,0.3432327508926391
0.9114336967468262,-0.0017453292384743,0.0,0.0,-0.107873149216175,-9.169217109680176,0.3236194550991058
0.9164364337921143,-0.0017453292384743,0.0,0.0,-0.0686465501785278,-9.208444595336914,0.3432327508926391
0.921440601348877,-0.0017453292384743,0.0,0.0,-0.107873149216175,-9.208444595336914,0.3040061295032501
0.9264438152313232,0.0,0.0017453292384743,0.0,-0.0882598459720611,-9.188830375671388,0.3628460466861725
0.9314470291137695,0.0,0.0017453292384743,0.0017453292384743,-0.107873149216175,-9.188830375671388,0.3236194550991058
0.9364511966705322,0.0,0.0052359877154231,0.0017453292384743,-0.107873149216175,-9.208444595336914,0.3236194550991058
0.9414544105529785,-0.0017453292384743,0.0034906584769487,-0.0034906584769487,-0.0882598459720611,-9.208444595336914,0.3236194550991058
0.946458101272583,-0.0017453292384743,0.0,0.0,-0.107873149216175,-9.188830375671388,0.3236194550991058
0.9514617919921875,-0.0069813169538974,0.0,0.0017453292384743,-0.0882598459720611,-9.188830375671388,0.3628460466861725
0.9564666748046875,0.0,0.0017453292384743,-0.0034906584769487,-0.0882598459720611,-9.188830375671388,0.2843928337097168
0.961470365524292,-0.0034906584769487,0.0,0.0,-0.127486452460289,-9.208444595336914,0.3432327508926391
0.9664742946624756,-0.0069813169538974,-0.0017453292384743,0.0,-0.0882598459720611,-9.208444595336914,0.3432327508926391
0.9714782238006592,0.0,0.0034906584769487,0.0,-0.0882598459720611,-9.169217109680176,0.3236194550991058
0.9764828681945801,-0.0017453292384743,0.0017453292384743,0.0,-0.0882598459720611,-9.188830375671388,0.3236194550991058
0.9814867973327637,-0.0034906584769487,0.0034906584769487,0.0,-0.0686465501785278,-9.228057861328123,0.3236194550991058
0.9864907264709473,0.0,0.0,0.0017453292384743,-0.0882598459720611,-9.169217109680176,0.3432327508926391
0.9914944171905518,0.0,0.0,-0.0017453292384743,-0.0882598459720611,-9.188830375671388,0.3040061295032501
0.9964993000030518,-0.0052359877154231,0.0,0.0,-0.127486452460289,-9.188830375671388,0.3432327508926391
1.0015029907226562,-0.0034906584769487,0.0034906584769487,0.0017453292384743,-0.0882598459720611,-9.188830375671388,0.3236194550991058
1.0065066814422607,-0.0017453292384743,-0.0034906584769487,0.0,-0.0882598459720611,-9.208444595336914,0.3432327508926391
1.0115118026733398,-0.0034906584769487,0.0,0.0017453292384743,-0.127486452460289,-9.188830375671388,0.3432327508926391
1.0165152549743652,-0.0034906584769487,0.0,0.0,-0.107873149216175,-9.188830375671388,0.3236194550991058
1.0215191841125488,-0.0052359877154231,0.0,0.0,-0.0882598459720611,-9.208444595336914,0.3628460466861725
1.0265238285064697,0.0,0.0034906584769487,0.0034906584769487,-0.107873149216175,-9.188830375671388,0.3040061295032501
1.0315277576446533,-0.0017453292384743,0.0,0.0,-0.107873149216175,-9.208444595336914,0.3236194550991058
1.036531686782837,-0.0052359877154231,0.0017453292384743,0.0,-0.107873149216175,-9.208444595336914,0.3236194550991058
1.0415353775024414,0.0,0.0,0.0,-0.0882598459720611,-9.149603843688965,0.3432327508926391
1.0465400218963623,-0.0034906584769487,0.0052359877154231,0.0,-0.107873149216175,-9.188830375671388,0.3040061295032501
1.051543951034546,-0.0017453292384743,0.0034906584769487,0.0,-0.0882598459720611,-9.188830375671388,0.3628460466861725
1.0565476417541504,-0.0034906584769487,0.0034906584769487,0.0,-0.0882598459720611,-9.188830375671388,0.3432327508926391
1.0615510940551758,-0.0017453292384743,0.0017453292384743,-0.0017453292384743,-0.0882598459720611,-9.208444595336914,0.3432327508926391
1.0665562152862549,-0.0017453292384743,0.0017453292384743,0.0,-0.107873149216175,-9.188830375671388,0.3628460466861725
1.0715599060058594,-0.0017453292384743,0.0,0.0,-0.107873149216175,-9.188830375671388,0.3040061295032501
1.0765635967254639,0.0,0.0017453292384743,0.0,-0.107873149216175,-9.188830375671388,0.3236194550991058
1.0815682411193848,-0.0034906584769487,0.0034906584769487,0.0017453292384743,-0.107873149216175,-9.208444595336914,0.3628460466861725
1.0865719318389893,-0.0017453292384743,0.0017453292384743,0.0,-0.0882598459720611,-9.188830375671388,0.3432327508926391
1.091576099395752,-0.0034906584769487,0.0017453292384743,0.0,-0.0882598459720611,-9.208444595336914,0.3628460466861725
1.0965802669525146,0.0,0.0017453292384743,0.0017453292384743,-0.0686465501785278,-9.188830375671388,0.3432327508926391
1.1015841960906982,-0.0017453292384743,-0.0017453292384743,0.0,-0.0882598459720611,-9.188830375671388,0.3236194550991058
1.1065881252288818,-0.0017453292384743,0.0052359877154231,0.0,-0.107873149216175,-9.188830375671388,0.3040061295032501
1.1115918159484863,0.0,-0.0017453292384743,0.0017453292384743,-0.107873149216175,-9.188830375671388,0.3432327508926391
1.1165964603424072,-0.0034906584769487,0.0017453292384743,0.0,-0.0882598459720611,-9.208444595336914,0.3236194550991058
1.1216001510620117,0.0,0.0,0.0,-0.107873149216175,-9.188830375671388,0.3236194550991058
1.1266040802001953,-0.0052359877154231,0.0,0.0,-0.127486452460289,-9.188830375671388,0.3432327508926391
1.1316075325012207,-0.0017453292384743,0.0,0.0017453292384743,-0.0882598459720611,-9.228057861328123,0.3040061295032501
1.1366121768951416,-0.0052359877154231,-0.0034906584769487,0.0,-0.107873149216175,-9.188830375671388,0.3040061295032501
1.141615867614746,-0.0034906584769487,0.0017453292384743,0.0017453292384743,-0.107873149216175,-9.188830375671388,0.3040061295032501
1.1466195583343506,-0.0052359877154231,-0.0034906584769487,0.0034906584769487,-0.107873149216175,-9.188830375671388,0.3040061295032501
1.1516242027282715,-0.0052359877154231,0.0,0.0017453292384743,-0.107873149216175,-9.188830375671388,0.3040061295032501
1.156628131866455,-0.0017453292384743,0.0,0.0,-0.127486452460289,-9.208444595336914,0.3432327508926391
1.1616318225860596,-0.0017453292384743,0.0034906584769487,0.0,-0.0882598459720611,-9.208444595336914,0.3628460466861725
1.166635513305664,0.0,0.0,0.0017453292384743,-0.127486452460289,-9.169217109680176,0.3628460466861725
1.171640157699585,-0.0052359877154231,0.0,0.0017453292384743,-0.107873149216175,-9.188830375671388,0.3432327508926391
1.1766440868377686,-0.0069813169538974,-0.0017453292384743,0.0017453292384743,-0.0882598459720611,-9.208444595336914,0.3432327508926391
1.181647539138794,0.0,0.0,0.0052359877154231,-0.107873149216175,-9.228057861328123,0.3236194550991058
1.1866509914398193,-0.0052359877154231,0.0,0.0,-0.107873149216175,-9.188830375671388,0.3236194550991058
1.1916556358337402,-0.0034906584769487,0.0034906584769487,0.0,-0.107873149216175,-9.188830375671388,0.3236194550991058
1.1966590881347656,-0.0034906584769487,0.0,0.0,-0.107873149216175,-9.208444595336914,0.3432327508926391
1.2016630172729492,-0.0034906584769487,0.0034906584769487,-0.0017453292384743,-0.107873149216175,-9.208444595336914,0.3040061295032501
1.2066676616668701,0.0017453292384743,0.0,0.0034906584769487,-0.107873149216175,-9.188830375671388,0.3040061295032501
1.2116713523864746,-0.0017453292384743,0.0,0.0,-0.107873149216175,-9.188830375671388,0.2843928337097168
1.2166752815246582,-0.0017453292384743,0.0,-0.0017453292384743,-0.107873149216175,-9.188830375671388,0.3432327508926391
1.2216796875,-0.0017453292384743,0.0034906584769487,0.0034906584769487,-0.0882598459720611,-9.188830375671388,0.3236194550991058
1.2266833782196045,0.0,0.0052359877154231,-0.0017453292384743,-0.0882598459720611,-9.188830375671388,0.3432327508926391
1.231687068939209,-0.0034906584769487,0.0,0.0,-0.0882598459720611,-9.208444595336914,0.3236194550991058
1.2366902828216553,-0.0052359877154231,0.0,0.0,-0.107873149216175,-9.188830375671388,0.3432327508926391
1.241694688796997,0.0,0.0034906584769487,0.0017453292384743,-0.0882598459720611,-9.208444595336914,0.3040061295032501
1.2466986179351807,-0.0034906584769487,0.0034906584769487,0.0,-0.0686465501785278,-9.228057861328123,0.3236194550991058
1.2517023086547852,0.0,0.0034906584769487,0.0,-0.0686465501785278,-9.208444595336914,0.3432327508926391
1.256706953048706,-0.0034906584769487,-0.0017453292384743,0.0,-0.0882598459720611,-9.188830375671388,0.3040061295032501
1.2617108821868896,-0.0017453292384743,0.0,0.0,-0.107873149216175,-9.188830375671388,0.3628460466861725
1.266714334487915,0.0,-0.0017453292384743,0.0034906584769487,-0.107873149216175,-9.188830375671388,0.3236194550991058
1.2717177867889404,-0.0034906584769487,0.0034906584769487,0.0,-0.107873149216175,-9.228057861328123,0.3628460466861725
1.2767224311828613,0.0,0.0,-0.0017453292384743,-0.0882598459720611,-9.188830375671388,0.3236194550991058
1.2817261219024658,0.0,0.0,0.0,-0.127486452460289,-9.228057861328123,0.3628460466861725
1.2867298126220703,0.0,0.0034906584769487,0.0034906584769487,-0.107873149216175,-9.228057861328123,0.3236194550991058
1.2917330265045166,-0.0034906584769487,0.0,0.0,-0.0882598459720611,-9.169217109680176,0.3628460466861725
1.2967376708984375,-0.0052359877154231,0.0034906584769487,0.0,-0.107873149216175,-9.188830375671388,0.3236194550991058
1.301741361618042,0.0,0.0017453292384743,0.0,-0.0686465501785278,-9.188830375671388,0.3432327508926391
1.3067448139190674,0.0,0.0,0.0,-0.107873149216175,-9.208444595336914,0.3236194550991058
1.3117496967315674,-0.0052359877154231,-0.0034906584769487,-0.0017453292384743,-0.0882598459720611,-9.188830375671388,0.3432327508926391
1.3167531490325928,-0.0017453292384743,0.0,0.0034906584769487,-0.0490332469344139,-9.228057861328123,0.3236194550991058
1.3217566013336182,-0.0052359877154231,-0.0017453292384743,0.0,-0.107873149216175,-9.208444595336914,0.3432327508926391
1.3267602920532227,0.0,0.0017453292384743,0.0,-0.0882598459720611,-9.188830375671388,0.3236194550991058
1.3317649364471436,-0.0017453292384743,0.0034906584769487,0.0,-0.0882598459720611,-9.228057861328123,0.3432327508926391
1.336768388748169,-0.0017453292384743,0.0052359877154231,0.0,-0.0882598459720611,-9.228057861328123,0.3432327508926391
1.3417720794677734,0.0,0.0,0.0034906584769487,-0.107873149216175,-9.208444595336914,0.3236194550991058
1.3467752933502197,-0.0017453292384743,0.0034906584769487,-0.0017453292384743,-0.107873149216175,-9.208444595336914,0.3628460466861725
1.3517799377441406,-0.0034906584769487,0.0,0.0,-0.0882598459720611,-9.188830375671388,0.3432327508926391
1.356783390045166,0.0,0.0,0.0017453292384743,-0.127486452460289,-9.208444595336914,0.3432327508926391
1.361788034439087,-0.0052359877154231,0.0,0.0017453292384743,-0.107873149216175,-9.188830375671388,0.3040061295032501
1.3667914867401123,-0.0034906584769487,0.0034906584769487,0.0017453292384743,-0.107873149216175,-9.188830375671388,0.3432327508926391
1.3717951774597168,-0.0017453292384743,0.0,0.0,-0.107873149216175,-9.188830375671388,0.3236194550991058
1.3767986297607422,-0.0034906584769487,0.0,0.0017453292384743,-0.107873149216175,-9.188830375671388,0.3236194550991058
1.3818023204803467,0.0,0.0,0.0,-0.0882598459720611,-9.228057861328123,0.3236194550991058
1.3868067264556885,-0.0069813169538974,0.0017453292384743,0.0,-0.0882598459720611,-9.208444595336914,0.3432327508926391
1.3918101787567139,-0.0069813169538974,0.0,0.0,-0.107873149216175,-9.208444595336914,0.3432327508926391
1.3968136310577393,-0.0069813169538974,-0.0017453292384743,0.0034906584769487,-0.107873149216175,-9.208444595336914,0.3432327508926391
1.401818037033081,-0.0052359877154231,0.0017453292384743,0.0,-0.107873149216175,-9.188830375671388,0.3432327508926391
1.4068214893341064,0.0,0.0017453292384743,0.0,-0.0882598459720611,-9.188830375671388,0.3628460466861725
1.411825180053711,-0.0017453292384743,-0.0017453292384743,0.0052359877154231,-0.107873149216175,-9.208444595336914,0.3628460466861725
1.4168295860290527,0.0,0.0034906584769487,0.0017453292384743,-0.0882598459720611,-9.208444595336914,0.3236194550991058
1.4218332767486572,-0.0034906584769487,0.0,0.0,-0.107873149216175,-9.208444595336914,0.3236194550991058
1.4268367290496826,-0.0017453292384743,0.0017453292384743,0.0,-0.107873149216175,-9.208444595336914,0.3236194550991058
1.431840181350708,0.0,0.0052359877154231,0.0017453292384743,-0.0882598459720611,-9.188830375671388,0.3432327508926391
1.4368445873260498,0.0,0.0,0.0,-0.0882598459720611,-9.208444595336914,0.3628460466861725
1.4418480396270752,0.0,0.0,-0.0017453292384743,-0.107873149216175,-9.188830375671388,0.3432327508926391
1.4468514919281006,-0.0017453292384743,-0.0052359877154231,0.0034906584769487,-0.107873149216175,-9.188830375671388,0.3432327508926391
1.451854944229126,-0.0052359877154231,0.0,0.0,-0.107873149216175,-9.208444595336914,0.3236194550991058
1.4568595886230469,0.0,0.0017453292384743,0.0,-0.0686465501785278,-9.208444595336914,0.3432327508926391
1.4618632793426514,-0.0017453292384743,0.0017453292384743,0.0017453292384743,-0.107873149216175,-9.188830375671388,0.3236194550991058
1.4668664932250977,0.0,0.0,0.0017453292384743,-0.0882598459720611,-9.208444595336914,0.3432327508926391
1.4718708992004395,0.0,0.0,0.0,-0.0882598459720611,-9.208444595336914,0.3236194550991058
1.4768743515014648,-0.0087266461923718,0.0,0.0,-0.107873149216175,-9.188830375671388,0.3040061295032501
1.4818775653839111,0.0,0.0,0.0017453292384743,-0.127486452460289,-9.188830375671388,0.3628460466861725
1.486882209777832,-0.0052359877154231,0.0,0.0017453292384743,-0.107873149216175,-9.208444595336914,0.3236194550991058
1.4918856620788574,-0.0034906584769487,0.0,0.0034906584769487,-0.107873149216175,-9.188830375671388,0.3628460466861725
1.4968891143798828,-0.0034906584769487,0.0,0.0,-0.0882598459720611,-9.169217109680176,0.3236194550991058
1.5018925666809082,-0.0017453292384743,-0.0034906584769487,0.0034906584769487,-0.0686465501785278,-9.208444595336914,0.3432327508926391
1.50689697265625,-0.0052359877154231,0.0,0.0,-0.0686465501785278,-9.208444595336914,0.3432327508926391
1.5119004249572754,-0.0017453292384743,0.0,0.0,-0.107873149216175,-9.188830375671388,0.3236194550991058
1.5169038772583008,-0.0017453292384743,0.0034906584769487,-0.0017453292384743,-0.107873149216175,-9.208444595336914,0.3236194550991058
1.521907091140747,-0.0017453292384743,0.0,0.0,-0.0686465501785278,-9.208444595336914,0.3432327508926391
1.5269114971160889,-0.0034906584769487,0.0034906584769487,-0.0034906584769487,-0.0686465501785278,-9.208444595336914,0.3432327508926391
1.5319149494171143,-0.0017453292384743,0.0,0.0017453292384743,-0.0882598459720611,-9.208444595336914,0.3432327508926391
1.5369184017181396,0.0,-0.0017453292384743,0.0,-0.0882598459720611,-9.228057861328123,0.3432327508926391
1.5419228076934814,-0.0017453292384743,-0.0017453292384743,0.0,-0.107873149216175,-9.188830375671388,0.3432327508926391
1.5469262599945068,-0.0052359877154231,-0.0052359877154231,0.0017453292384743,-0.107873149216175,-9.208444595336914,0.3432327508926391
1.5519294738769531,0.0034906584769487,0.0017453292384743,0.0,-0.0882598459720611,-9.208444595336914,0.3432327508926391
1.5569331645965576,-0.0017453292384743,0.0052359877154231,0.0,-0.0882598459720611,-9.208444595336914,0.3432327508926391
1.5619375705718994,0.0,0.0052359877154231,0.0,-0.107873149216175,-9.208444595336914,0.3236194550991058
1.5669407844543457,-0.0034906584769487,0.0052359877154231,0.0017453292384743,-0.0882598459720611,-9.188830375671388,0.3432327508926391
1.571943998336792,-0.0017453292384743,0.0017453292384743,0.0,-0.0882598459720611,-9.188830375671388,0.3040061295032501
1.5769484043121338,-0.0034906584769487,-0.0017453292384743,0.0017453292384743,-0.107873149216175,-9.188830375671388,0.3432327508926391
1.5819520950317383,-0.0034906584769487,-0.0017453292384743,0.0,-0.0686465501785278,-9.228057861328123,0.3432327508926391
1.5869550704956055,-0.0034906584769487,0.0,0.0,-0.0882598459720611,-9.188830375671388,0.3432327508926391
1.59195876121521,-0.0034906584769487,-0.0017453292384743,0.0,-0.107873149216175,-9.208444595336914,0.3236194550991058
1.5969631671905518,-0.0017453292384743,0.0017453292384743,-0.0017453292384743,-0.0882598459720611,-9.188830375671388,0.3236194550991058
1.601966381072998,0.0,0.0034906584769487,0.0,-0.107873149216175,-9.188830375671388,0.3432327508926391
1.6069695949554443,-0.0034906584769487,0.0,0.0,-0.0686465501785278,-9.188830375671388,0.3628460466861725
1.6119732856750488,0.0,0.0017453292384743,0.0017453292384743,-0.1470997482538223,-9.169217109680176,0.3236194550991058
1.6169776916503906,-0.0017453292384743,0.0034906584769487,0.0,-0.0882598459720611,-9.208444595336914,0.3040061295032501
1.6219806671142578,-0.0017453292384743,0.0,0.0,-0.107873149216175,-9.208444595336914,0.3432327508926391
1.6269841194152832,-0.0017453292384743,0.0017453292384743,0.0017453292384743,-0.107873149216175,-9.208444595336914,0.3432327508926391
1.631988286972046,-0.0034906584769487,0.0052359877154231,0.0,-0.0882598459720611,-9.208444595336914,0.3824593424797058
1.6369917392730713,-0.0017453292384743,0.0,0.0052359877154231,-0.107873149216175,-9.169217109680176,0.3824593424797058
1.6419951915740967,-0.0069813169538974,0.0034906584769487,0.0,-0.107873149216175,-9.208444595336914,0.3236194550991058
1.646998405456543,0.0,0.0,0.0,-0.107873149216175,-9.208444595336914,0.3236194550991058
1.6520025730133057,-0.0017453292384743,0.0,0.0017453292384743,-0.107873149216175,-9.208444595336914,0.3236194550991058
1.657006025314331,0.0,0.0034906584769487,0.0,-0.0882598459720611,-9.228057861328123,0.3236194550991058
1.6620094776153564,-0.0052359877154231,0.0,0.0,-0.0882598459720611,-9.188830375671388,0.3040061295032501
1.6670136451721191,-0.0017453292384743,-0.0017453292384743,0.0,-0.107873149216175,-9.208444595336914,0.3236194550991058
1.6720170974731445,-0.0034906584769487,0.0,-0.0017453292384743,-0.107873149216175,-9.208444595336914,0.3236194550991058
1.6770203113555908,-0.0017453292384743,0.0087266461923718,-0.0017453292384743,-0.107873149216175,-9.208444595336914,0.3432327508926391
1.6820247173309326,-0.0017453292384743,0.0,0.0,-0.0882598459720611,-9.208444595336914,0.3432327508926391
1.6870276927947998,-0.0017453292384743,0.0,0.0,-0.0882598459720611,-9.188830375671388,0.3432327508926391
1.6920311450958252,-0.0034906584769487,0.0,0.0,-0.0686465501785278,-9.208444595336914,0.3236194550991058
1.6970343589782715,-0.0034906584769487,0.0017453292384743,0.0,-0.0686465501785278,-9.208444595336914,0.3432327508926391
1.7020387649536133,0.0,0.0017453292384743,0.0,-0.0882598459720611,-9.228057861328123,0.3432327508926391
1.7070419788360596,-0.0017453292384743,0.0052359877154231,0.0,-0.0882598459720611,-9.188830375671388,0.3432327508926391
1.712045431137085,-0.0034906584769487,0.0052359877154231,0.0,-0.107873149216175,-9.188830375671388,0.3432327508926391
1.7170488834381104,-0.0017453292384743,0.0017453292384743,0.0,-0.0882598459720611,-9.208444595336914,0.3432327508926391
1.7220532894134521,-0.0017453292384743,0.0017453292384743,0.0,-0.0882598459720611,-9.188830375671388,0.3432327508926391
1.7270560264587402,-0.0052359877154231,0.0,0.0034906584769487,-0.107873149216175,-9.188830375671388,0.3432327508926391
1.7320592403411865,-0.0017453292384743,0.0,0.0034906584769487,-0.0882598459720611,-9.208444595336914,0.3628460466861725
1.7370636463165283,0.0,0.0,-0.0017453292384743,-0.107873149216175,-9.188830375671388,0.3432327508926391
1.7420668601989746,-0.0017453292384743,0.0,0.0,-0.107873149216175,-9.228057861328123,0.3236194550991058
1.7470703125,-0.0052359877154231,0.0017453292384743,0.0,-0.107873149216175,-9.228057861328123,0.3236194550991058
1.7520735263824463,-0.0052359877154231,0.0,0.0052359877154231,-0.0686465501785278,-9.188830375671388,0.3628460466861725
1.757077693939209,0.0,0.0,0.0,-0.107873149216175,-9.188830375671388,0.3628460466861725
1.7620806694030762,-0.0017453292384743,0.0,0.0,-0.0882598459720611,-9.188830375671388,0.3236194550991058
1.7670841217041016,-0.0052359877154231,0.0,0.0,-0.107873149216175,-9.208444595336914,0.3432327508926391
1.7720882892608643,-0.0034906584769487,0.0,0.0017453292384743,-0.0490332469344139,-9.169217109680176,0.3236194550991058
1.7770915031433105,-0.0052359877154231,-0.0034906584769487,0.0017453292384743,-0.0882598459720611,-9.208444595336914,0.3236194550991058
1.782094955444336,-0.0017453292384743,0.0034906584769487,0.0017453292384743,-0.0882598459720611,-9.208444595336914,0.3432327508926391
1.7870981693267822,0.0,0.0,0.0,-0.107873149216175,-9.188830375671388,0.3432327508926391
1.792102336883545,-0.0034906584769487,-0.0017453292384743,0.0017453292384743,-0.0882598459720611,-9.208444595336914,0.3628460466861725
1.7971055507659912,-0.0034906584769487,0.0,0.0017453292384743,-0.107873149216175,-9.208444595336914,0.3432327508926391
1.8021082878112793,-0.0017453292384743,-0.0017453292384743,0.0034906584769487,-0.107873149216175,-9.169217109680176,0.3824593424797058
1.8071117401123047,-0.0034906584769487,0.0017453292384743,0.0,-0.107873149216175,-9.169217109680176,0.3040061295032501
1.8121161460876465,-0.0034906584769487,0.0034906584769487,0.0017453292384743,-0.107873149216175,-9.247671127319336,0.3236194550991058
1.8171193599700928,-0.0017453292384743,-0.0052359877154231,0.0,-0.107873149216175,-9.228057861328123,0.3432327508926391
1.822122573852539,-0.0052359877154231,0.0,0.0,-0.107873149216175,-9.169217109680176,0.3628460466861725
1.8271267414093018,0.0,0.0,0.0,-0.107873149216175,-9.169217109680176,0.3628460466861725
1.832129955291748,-0.0017453292384743,0.0017453292384743,0.0,-0.107873149216175,-9.169217109680176,0.3236194550991058
1.8371326923370361,0.0,-0.0017453292384743,-0.0017453292384743,-0.0882598459720611,-9.208444595336914,0.3040061295032501
1.8421361446380615,-0.0052359877154231,0.0,0.0017453292384743,-0.0686465501785278,-9.208444595336914,0.3432327508926391
1.8471403121948242,0.0,0.0,0.0,-0.0882598459720611,-9.228057861328123,0.3628460466861725
1.8521435260772705,0.0,0.0052359877154231,0.0,-0.107873149216175,-9.188830375671388,0.3432327508926391
1.8571467399597168,0.0,0.0017453292384743,0.0,-0.107873149216175,-9.188830375671388,0.3628460466861725
1.8621506690979004,-0.0017453292384743,0.0017453292384743,0.0017453292384743,-0.0882598459720611,-9.208444595336914,0.3432327508926391
1.8671541213989258,-0.0017453292384743,0.0,0.0,-0.0882598459720611,-9.188830375671388,0.3432327508926391
1.872157096862793,-0.0017453292384743,0.0017453292384743,0.0,-0.0686465501785278,-9.188830375671388,0.3432327508926391
1.8771603107452393,0.0,0.0017453292384743,0.0,-0.0882598459720611,-9.208444595336914,0.3236194550991058
1.882164478302002,0.0,0.0034906584769487,0.0,-0.107873149216175,-9.188830375671388,0.3432327508926391
1.8871676921844482,0.0,0.0017453292384743,0.0,-0.107873149216175,-9.188830375671388,0.3040061295032501
1.8921706676483154,-0.0034906584769487,0.0034906584769487,0.0017453292384743,-0.107873149216175,-9.208444595336914,0.3432327508926391
1.8971741199493408,-0.0017453292384743,0.0,-0.0017453292384743,-0.0882598459720611,-9.208444595336914,0.3236194550991058
1.9021782875061035,-0.0069813169538974,0.0,0.0,-0.107873149216175,-9.188830375671388,0.3236194550991058
1.9071812629699707,-0.0017453292384743,0.0034906584769487,0.0,-0.0882598459720611,-9.208444595336914,0.3432327508926391
1.912184238433838,-0.0034906584769487,0.0,-0.0017453292384743,-0.0882598459720611,-9.208444595336914,0.3432327508926391
1.9171884059906006,-0.0017453292384743,0.0017453292384743,0.0017453292384743,-0.0882598459720611,-9.208444595336914,0.3236194550991058
1.9221916198730469,-0.0017453292384743,0.0017453292384743,-0.0017453292384743,-0.0882598459720611,-9.208444595336914,0.3236194550991058
1.9271948337554932,-0.0052359877154231,0.0,0.0017453292384743,-0.0882598459720611,-9.188830375671388,0.3432327508926391
1.9321980476379395,0.0,0.0069813169538974,-0.0034906584769487,-0.0882598459720611,-9.208444595336914,0.3432327508926391
1.937201976776123,-0.0034906584769487,0.0017453292384743,0.0,-0.0882598459720611,-9.208444595336914,0.3432327508926391
1.9422049522399902,-0.0017453292384743,0.0,0.0,-0.107873149216175,-9.228057861328123,0.3432327508926391
1.9472100734710693,-0.0017453292384743,0.0,0.0,-0.0882598459720611,-9.188830375671388,0.3432327508926391
1.9522149562835693,0.0,0.0034906584769487,0.0017453292384743,-0.0882598459720611,-9.228057861328123,0.3432327508926391
1.957218885421753,-0.0034906584769487,0.0,0.0,-0.0686465501785278,-9.188830375671388,0.3236194550991058
1.9622225761413574,-0.0017453292384743,0.0,0.0034906584769487,-0.127486452460289,-9.208444595336914,0.3628460466861725
1.9672276973724365,-0.0052359877154231,0.0,0.0017453292384743,-0.107873149216175,-9.188830375671388,0.3236194550991058
1.972231388092041,-0.0034906584769487,0.0,0.0,-0.107873149216175,-9.169217109680176,0.3432327508926391
1.9772350788116455,-0.0034906584769487,0.0052359877154231,0.0,-0.107873149216175,-9.169217109680176,0.3432327508926391
1.982239007949829,0.0,0.0,0.0,-0.107873149216175,-9.169217109680176,0.3432327508926391
1.987243890762329,-0.0017453292384743,0.0,0.0017453292384743,-0.127486452460289,-9.208444595336914,0.3236194550991058
1.9922478199005127,-0.0034906584769487,0.0034906584769487,0.0,-0.107873149216175,-9.208444595336914,0.3040061295032501
1.9972517490386963,-0.0087266461923718,0.0017453292384743,0.0017453292384743,-0.0686465501785278,-9.188830375671388,0.3824593424797058
2.00225567817688,-0.0017453292384743,0.0034906584769487,0.0,-0.107873149216175,-9.188830375671388,0.3432327508926391
2.007260322570801,-0.0034906584769487,-0.0034906584769487,0.0017453292384743,-0.127486452460289,-9.208444595336914,0.3236194550991058
2.0122642517089844,-0.0017453292384743,0.0,0.0034906584769487,-0.107873149216175,-9.188830375671388,0.3236194550991058
2.0172674655914307,-0.0052359877154231,0.0069813169538974,0.0017453292384743,-0.107873149216175,-9.208444595336914,0.3432327508926391
2.0222725868225098,-0.0069813169538974,0.0,0.0,-0.0686465501785278,-9.188830375671388,0.3432327508926391
2.0272762775421143,-0.0034906584769487,0.0,0.0,-0.107873149216175,-9.208444595336914,0.3628460466861725
2.032280206680298,-0.0017453292384743,0.0034906584769487,0.0,-0.0882598459720611,-9.188830375671388,0.3236194550991058
2.037285089492798,-0.0034906584769487,-0.0017453292384743,0.0,-0.107873149216175,-9.208444595336914,0.3432327508926391
2.0422887802124023,-0.0034906584769487,0.0,0.0,-0.107873149216175,-9.208444595336914,0.2843928337097168
2.047292709350586,-0.0017453292384743,0.0,0.0,-0.0882598459720611,-9.208444595336914,0.3628460466861725
2.0522964000701904,-0.0017453292384743,0.0,0.0,-0.0882598459720611,-9.208444595336914,0.3628460466861725
2.0573012828826904,-0.0017453292384743,0.0,0.0017453292384743,-0.107873149216175,-9.228057861328123,0.3236194550991058
2.062304973602295,-0.0017453292384743,0.0,0.0,-0.0882598459720611,-9.208444595336914,0.3432327508926391
2.0673089027404785,0.0,0.0,0.0,-0.107873149216175,-9.188830375671388,0.3432327508926391
2.072312593460083,-0.0052359877154231,0.0,0.0017453292384743,-0.107873149216175,-9.188830375671388,0.3432327508926391
2.077317476272583,0.0,0.0,0.0,-0.0882598459720611,-9.208444595336914,0.3040061295032501
2.0823206901550293,-0.0052359877154231,0.0,0.0,-0.0882598459720611,-9.208444595336914,0.3432327508926391
2.087324857711792,-0.0017453292384743,0.0017453292384743,0.0,-0.107873149216175,-9.208444595336914,0.3432327508926391
2.092329502105713,-0.0034906584769487,0.0,0.0,-0.107873149216175,-9.208444595336914,0.3432327508926391
2.0973334312438965,0.0,0.0017453292384743,0.0052359877154231,-0.0882598459720611,-9.188830375671388,0.3628460466861725
2.102337121963501,-0.0052359877154231,0.0,0.0,-0.0882598459720611,-9.188830375671388,0.3236194550991058
2.1073408126831055,-0.0017453292384743,-0.0034906584769487,0.0,-0.0882598459720611,-9.228057861328123,0.3432327508926391
2.1123456954956055,-0.0034906584769487,0.0,0.0,-0.127486452460289,-9.188830375671388,0.3236194550991058
2.11734938621521,-0.0069813169538974,0.0,0.0034906584769487,-0.0686465501785278,-9.188830375671388,0.3236194550991058
2.1223530769348145,-0.0017453292384743,0.0,0.0,-0.0882598459720611,-9.228057861328123,0.3040061295032501
2.1273579597473145,-0.0034906584769487,0.0,0.0,-0.107873149216175,-9.188830375671388,0.3432327508926391
2.132361650466919,-0.0034906584769487,0.0,0.0,-0.0882598459720611,-9.169217109680176,0.3236194550991058
2.1373651027679443,-0.0052359877154231,0.0,0.0017453292384743,-0.107873149216175,-9.208444595336914,0.3432327508926391
2.142369031906128,0.0,0.0,0.0,-0.107873149216175,-9.228057861328123,0.3236194550991058
2.147373676300049,-0.0017453292384743,0.0,0.0,-0.0882598459720611,-9.188830375671388,0.3236194550991058
2.1523773670196533,-0.0017453292384743,0.0034906584769487,0.0,-0.0686465501785278,-9.208444595336914,0.3432327508926391
2.157381296157837,0.0,0.0,0.0,-0.0686465501785278,-9.208444595336914,0.3236194550991058
2.162385940551758,-0.0034906584769487,0.0,0.0,-0.0882598459720611,-9.188830375671388,0.3432327508926391
2.1673896312713623,-0.0017453292384743,0.0,0.0034906584769487,-0.0882598459720611,-9.208444595336914,0.3236194550991058
2.1723930835723877,-0.0034906584769487,0.0,0.0034906584769487,-0.107873149216175,-9.188830375671388,0.3040061295032501
2.1773979663848877,-0.0017453292384743,0.0,0.0017453292384743,-0.0882598459720611,-9.188830375671388,0.3628460466861725
2.182401657104492,-0.0017453292384743,0.0069813169538974,0.0,-0.0882598459720611,-9.208444595336914,0.3432327508926391
2.1874053478240967,0.0,0.0,-0.0017453292384743,-0.107873149216175,-9.188830375671388,0.3628460466861725
2.1924092769622803,-0.0017453292384743,0.0034906584769487,0.0,-0.0686465501785278,-9.208444595336914,0.3236194550991058
2.197413682937622,-0.0034906584769487,0.0,0.0,-0.0882598459720611,-9.208444595336914,0.3628460466861725
2.2024173736572266,-0.0034906584769487,0.0052359877154231,0.0,-0.0882598459720611,-9.208444595336914,0.3236194550991058
2.20742130279541,0.0,-0.0017453292384743,0.0017453292384743,-0.0882598459720611,-9.188830375671388,0.3628460466861725
2.2124247550964355,0.0,0.0017453292384743,0.0,-0.0882598459720611,-9.188830375671388,0.3432327508926391
2.2174293994903564,-0.0069813169538974,0.0017453292384743,0.0017453292384743,-0.107873149216175,-9.208444595336914,0.3432327508926391
2.222433090209961,0.0,0.0017453292384743,0.0034906584769487,-0.0882598459720611,-9.228057861328123,0.3628460466861725
2.2274367809295654,0.0,0.0017453292384743,0.0,-0.0882598459720611,-9.208444595336914,0.3432327508926391
2.23244047164917,-0.0052359877154231,0.0,0.0,-0.0882598459720611,-9.188830375671388,0.3432327508926391
2.237445116043091,0.0,0.0017453292384743,0.0,-0.0882598459720611,-9.188830375671388,0.3432327508926391
2.2424488067626953,-0.0034906584769487,0.0,0.0,-0.0686465501785278,-9.188830375671388,0.3432327508926391
2.2474536895751953,-0.0052359877154231,0.0,0.0,-0.107873149216175,-9.188830375671388,0.3040061295032501
2.2524566650390625,0.0,0.0017453292384743,0.0017453292384743,-0.0882598459720611,-9.188830375671388,0.3040061295032501
2.257460594177246,0.0017453292384743,0.0034906584769487,0.0,-0.107873149216175,-9.188830375671388,0.3432327508926391
2.2624642848968506,0.0,0.0034906584769487,0.0,-0.0882598459720611,-9.208444595336914,0.3040061295032501
2.267467975616455,-0.0052359877154231,0.0,0.0017453292384743,-0.107873149216175,-9.188830375671388,0.3236194550991058
2.272472620010376,-0.0017453292384743,0.0017453292384743,0.0,-0.107873149216175,-9.208444595336914,0.3236194550991058
2.2774760723114014,-0.0052359877154231,0.0,0.0,-0.107873149216175,-9.208444595336914,0.3628460466861725
2.282479763031006,-0.0017453292384743,0.0,0.0017453292384743,-0.107873149216175,-9.228057861328123,0.3432327508926391
2.2874836921691895,-0.0052359877154231,0.0017453292384743,-0.0034906584769487,-0.107873149216175,-9.188830375671388,0.3236194550991058
2.2924880981445312,-0.0052359877154231,0.0,0.0017453292384743,-0.0882598459720611,-9.208444595336914,0.3236194550991058
2.2974917888641357,0.0,0.0,0.0,-0.107873149216175,-9.188830375671388,0.3432327508926391
2.3024961948394775,-0.0017453292384743,0.0034906584769487,0.0017453292384743,-0.107873149216175,-9.208444595336914,0.3432327508926391
2.307499647140503,-0.0017453292384743,0.0069813169538974,-0.0034906584769487,-0.0882598459720611,-9.208444595336914,0.3628460466861725
2.3125033378601074,0.0,0.0,0.0017453292384743,-0.107873149216175,-9.208444595336914,0.3040061295032501
2.317507028579712,-0.0017453292384743,0.0,0.0017453292384743,-0.0882598459720611,-9.208444595336914,0.3236194550991058
2.322511672973633,0.0,-0.0017453292384743,0.0,-0.0882598459720611,-9.208444595336914,0.3236194550991058
2.327515125274658,-0.0017453292384743,-0.0017453292384743,0.0017453292384743,-0.0882598459720611,-9.208444595336914,0.3628460466861725
2.3325188159942627,-0.0017453292384743,0.0017453292384743,-0.0017453292384743,-0.0882598459720611,-9.228057861328123,0.3040061295032501
2.337522268295288,-0.0034906584769487,0.0,0.0,-0.127486452460289,-9.228057861328123,0.3040061295032501
2.342527151107788,0.0,0.0,0.0017453292384743,-0.0882598459720611,-9.228057861328123,0.3628460466861725
2.3475306034088135,-0.0017453292384743,0.0017453292384743,0.0,-0.0882598459720611,-9.208444595336914,0.3432327508926391
2.352534055709839,-0.0034906584769487,0.0034906584769487,0.0,-0.0882598459720611,-9.208444595336914,0.3432327508926391
2.3575384616851807,0.0,0.0,0.0017453292384743,-0.0882598459720611,-9.208444595336914,0.3236194550991058
2.362542152404785,-0.0017453292384743,0.0052359877154231,-0.0017453292384743,-0.0882598459720611,-9.208444595336914,0.3628460466861725
2.3675460815429688,-0.0034906584769487,-0.0017453292384743,0.0,-0.107873149216175,-9.208444595336914,0.3236194550991058
2.372549295425415,-0.0017453292384743,0.0017453292384743,-0.0017453292384743,-0.0686465501785278,-9.208444595336914,0.3824593424797058
2.377553939819336,-0.0069813169538974,0.0017453292384743,0.0017453292384743,-0.107873149216175,-9.188830375671388,0.3432327508926391
2.3825573921203613,-0.0017453292384743,0.0,-0.0017453292384743,-0.107873149216175,-9.188830375671388,0.3040061295032501
2.387561082839966,0.0,0.0,0.0,-0.127486452460289,-9.208444595336914,0.3236194550991058
2.3925654888153076,-0.0034906584769487,0.0,-0.0034906584769487,-0.107873149216175,-9.228057861328123,0.3432327508926391
2.397569179534912,-0.0052359877154231,0.0017453292384743,0.0,-0.127486452460289,-9.228057861328123,0.3236194550991058
2.4025726318359375,-0.0017453292384743,-0.0017453292384743,0.0034906584769487,-0.0882598459720611,-9.188830375671388,0.3040061295032501
2.407576084136963,0.0,0.0,0.0017453292384743,-0.0882598459720611,-9.208444595336914,0.3628460466861725
2.412580728530884,0.0,0.0034906584769487,0.0,-0.0882598459720611,-9.208444595336914,0.3628460466861725
2.417584180831909,-0.0017453292384743,0.0,0.0,-0.0686465501785278,-9.208444595336914,0.3236194550991058
2.4225876331329346,-0.0017453292384743,0.0,0.0034906584769487,-0.0882598459720611,-9.228057861328123,0.3040061295032501
2.4275922775268555,-0.0034906584769487,0.0017453292384743,0.0,-0.0686465501785278,-9.169217109680176,0.3432327508926391
2.4325954914093018,-0.0034906584769487,0.0052359877154231,0.0,-0.0882598459720611,-9.188830375671388,0.3432327508926391
2.4375994205474854,-0.0017453292384743,0.0069813169538974,0.0017453292384743,-0.107873149216175,-9.169217109680176,0.3236194550991058
2.4426028728485107,-0.0034906584769487,0.0,0.0,-0.0882598459720611,-9.188830375671388,0.3432327508926391
2.4476072788238525,-0.0069813169538974,0.0,0.0,-0.127486452460289,-9.208444595336914,0.3432327508926391
2.452610731124878,-0.0034906584769487,0.0,0.0,-0.107873149216175,-9.208444595336914,0.3236194550991058
2.4576141834259033,-0.0052359877154231,-0.0017453292384743,0.0017453292384743,-0.0882598459720611,-9.188830375671388,0.3432327508926391
2.462618589401245,-0.0052359877154231,0.0,0.0,-0.107873149216175,-9.169217109680176,0.3040061295032501
2.4676222801208496,-0.0017453292384743,-0.0017453292384743,0.0,-0.107873149216175,-9.188830375671388,0.3236194550991058
2.472625494003296,-0.0052359877154231,-0.0034906584769487,0.0017453292384743,-0.107873149216175,-9.188830375671388,0.3236194550991058
2.4776291847229004,0.0,0.0034906584769487,-0.0017453292384743,-0.107873149216175,-9.188830375671388,0.3236194550991058
2.4826338291168213,-0.0017453292384743,0.0,0.0,-0.107873149216175,-9.228057861328123,0.3432327508926391
2.4876372814178467,-0.0034906584769487,0.0017453292384743,0.0,-0.107873149216175,-9.188830375671388,0.3236194550991058
2.492640495300293,-0.0017453292384743,0.0,0.0,-0.107873149216175,-9.188830375671388,0.3236194550991058
2.4976449012756348,-0.0034906584769487,0.0034906584769487,-0.0017453292384743,-0.127486452460289,-9.169217109680176,0.3432327508926391
2.5026485919952393,-0.0034906584769487,0.0,0.0,-0.107873149216175,-9.188830375671388,0.3236194550991058
2.5076520442962646,-0.0017453292384743,0.0,0.0,-0.0686465501785278,-9.208444595336914,0.3432327508926391
2.51265549659729,0.0017453292384743,0.0017453292384743,-0.0017453292384743,-0.0882598459720611,-9.188830375671388,0.3236194550991058
2.517659902572632,-0.0034906584769487,-0.0017453292384743,0.0,-0.107873149216175,-9.188830375671388,0.3236194550991058
2.5226633548736572,-0.0017453292384743,0.0,0.0017453292384743,-0.0686465501785278,-9.169217109680176,0.3236194550991058
2.5276668071746826,0.0,0.0,0.0,-0.107873149216175,-9.208444595336914,0.3236194550991058
2.5326716899871826,-0.0052359877154231,0.0,0.0,-0.107873149216175,-9.188830375671388,0.3236194550991058
2.53767466545105,0.0,0.0034906584769487,0.0017453292384743,-0.0882598459720611,-9.188830375671388,0.3432327508926391
2.542678117752075,0.0,0.0017453292384743,0.0017453292384743,-0.0882598459720611,-9.188830375671388,0.3432327508926391
2.5476815700531006,0.0,0.0034906584769487,-0.0017453292384743,-0.0882598459720611,-9.228057861328123,0.3432327508926391
2.5526859760284424,-0.0052359877154231,0.0,0.0,-0.0882598459720611,-9.149603843688965,0.3432327508926391
2.5576894283294678,-0.0052359877154231,0.0,0.0017453292384743,-0.0882598459720611,-9.208444595336914,0.3236194550991058
2.562692880630493,0.0,0.0,0.0,-0.0882598459720611,-9.169217109680176,0.2843928337097168
2.567697286605835,-0.0017453292384743,-0.0017453292384743,0.0,-0.0882598459720611,-9.228057861328123,0.3432327508926391
2.5727007389068604,-0.0017453292384743,0.0,0.0052359877154231,-0.0882598459720611,-9.208444595336914,0.3432327508926391
2.5777041912078857,0.0,0.0,0.0,-0.0882598459720611,-9.208444595336914,0.3432327508926391
2.582707405090332,-0.0017453292384743,0.0052359877154231,-0.0034906584769487,-0.107873149216175,-9.228057861328123,0.3432327508926391
2.587711811065674,-0.0017453292384743,0.0052359877154231,0.0034906584769487,-0.107873149216175,-9.208444595336914,0.3432327508926391
2.592715263366699,-0.0034906584769487,0.0,0.0017453292384743,-0.107873149216175,-9.208444595336914,0.3236194550991058
2.5977187156677246,-0.0034906584769487,-0.0034906584769487,0.0034906584769487,-0.0882598459720611,-9.208444595336914,0.3432327508926391
2.6027231216430664,-0.0034906584769487,0.0034906584769487,-0.0017453292384743,-0.0882598459720611,-9.208444595336914,0.3432327508926391
2.607726573944092,0.0,0.0,0.0017453292384743,-0.0882598459720611,-9.188830375671388,0.3236194550991058
2.612729787826538,-0.0017453292384743,0.0,0.0,-0.107873149216175,-9.208444595336914,0.3432327508926391
2.6177332401275635,0.0,0.0034906584769487,0.0017453292384743,-0.0882598459720611,-9.208444595336914,0.3236194550991058
2.622737407684326,-0.0034906584769487,0.0017453292384743,0.0,-0.107873149216175,-9.208444595336914,0.3432327508926391
2.6277408599853516,-0.0069813169538974,0.0017453292384743,0.0,-0.0882598459720611,-9.208444595336914,0.3236194550991058
2.632744312286377,-0.0017453292384743,0.0,0.0034906584769487,-0.127486452460289,-9.228057861328123,0.3628460466861725
2.6377487182617188,0.0,0.0,0.0,-0.107873149216175,-9.188830375671388,0.3432327508926391
2.642751932144165,-0.0034906584769487,0.0,0.0,-0.107873149216175,-9.228057861328123,0.3824593424797058
2.6477553844451904,-0.0017453292384743,0.0034906584769487,0.0,-0.0686465501785278,-9.208444595336914,0.3628460466861725
2.652758836746216,-0.0017453292384743,0.0,0.0017453292384743,-0.107873149216175,-9.228057861328123,0.3236194550991058
2.6577632427215576,-0.0052359877154231,0.0017453292384743,0.0034906584769487,-0.0882598459720611,-9.228057861328123,0.3236194550991058
2.662766218185425,-0.0034906584769487,0.0,0.0,-0.107873149216175,-9.188830375671388,0.3236194550991058
2.66776967048645,-0.0017453292384743,0.0017453292384743,0.0,-0.107873149216175,-9.228057861328123,0.3236194550991058
2.6727731227874756,0.0,0.0034906584769487,0.0,-0.107873149216175,-9.228057861328123,0.3236194550991058
2.6777775287628174,0.0,0.0017453292384743,0.0017453292384743,-0.107873149216175,-9.228057861328123,0.3236194550991058
2.6827807426452637,-0.0034906584769487,0.0017453292384743,0.0017453292384743,-0.0882598459720611,-9.208444595336914,0.3432327508926391
2.687784194946289,-0.0017453292384743,0.0034906584769487,0.0,-0.107873149216175,-9.228057861328123,0.3236194550991058
2.692788600921631,-0.0017453292384743,0.0,0.0,-0.0686465501785278,-9.188830375671388,0.3628460466861725
2.697791814804077,-0.0017453292384743,0.0017453292384743,0.0,-0.0686465501785278,-9.188830375671388,0.3432327508926391
2.7027950286865234,-0.0034906584769487,0.0034906584769487,0.0034906584769487,-0.107873149216175,-9.169217109680176,0.3628460466861725
2.7077982425689697,-0.0017453292384743,0.0,0.0,-0.107873149216175,-9.208444595336914,0.3236194550991058
2.7128028869628906,0.0,0.0,0.0,-0.0882598459720611,-9.188830375671388,0.3236194550991058
2.717806100845337,0.0,0.0,0.0017453292384743,-0.127486452460289,-9.208444595336914,0.3432327508926391
2.722809076309204,-0.0017453292384743,0.0017453292384743,0.0,-0.0882598459720611,-9.247671127319336,0.3432327508926391
2.727813482284546,0.0,0.0034906584769487,0.0,-0.107873149216175,-9.228057861328123,0.3432327508926391
2.7328169345855713,-0.0034906584769487,0.0,0.0034906584769487,-0.107873149216175,-9.188830375671388,0.3236194550991058
2.7378203868865967,-0.0034906584769487,0.0,0.0,-0.0882598459720611,-9.188830375671388,0.3432327508926391
2.7428245544433594,-0.0034906584769487,0.0,0.0,-0.107873149216175,-9.188830375671388,0.3040061295032501
2.7478277683258057,-0.0052359877154231,0.0034906584769487,0.0,-0.0882598459720611,-9.208444595336914,0.3236194550991058
2.752830982208252,-0.0034906584769487,0.0052359877154231,0.0,-0.0882598459720611,-9.169217109680176,0.3432327508926391
2.7578344345092773,0.0,0.0,0.0017453292384743,-0.107873149216175,-9.208444595336914,0.3628460466861725
2.76283860206604,-0.0069813169538974,0.0034906584769487,0.0017453292384743,-0.0882598459720611,-9.228057861328123,0.3628460466861725
2.7678418159484863,-0.0052359877154231,0.0017453292384743,0.0,-0.0882598459720611,-9.188830375671388,0.3236194550991058
2.7728452682495117,0.0,0.0,-0.0017453292384743,-0.0882598459720611,-9.188830375671388,0.3040061295032501
2.777848482131958,-0.0034906584769487,0.0034906584769487,-0.0017453292384743,-0.0882598459720611,-9.188830375671388,0.3040061295032501
2.7828528881073,0.0,0.0,0.0,-0.127486452460289,-9.208444595336914,0.3236194550991058
2.787856101989746,-0.0052359877154231,0.0,0.0,-0.107873149216175,-9.188830375671388,0.3236194550991058
2.7928590774536133,-0.0034906584769487,0.0,0.0,-0.107873149216175,-9.188830375671388,0.3236194550991058
2.797863483428955,-0.0034906584769487,0.0017453292384743,0.0,-0.0686465501785278,-9.188830375671388,0.3040061295032501
2.8028666973114014,-0.0034906584769487,-0.0034906584769487,0.0017453292384743,-0.0686465501785278,-9.188830375671388,0.3040061295032501
2.8078699111938477,-0.0034906584769487,0.0,0.0,-0.0686465501785278,-9.188830375671388,0.3040061295032501
2.812873363494873,-0.0017453292384743,0.0,0.0,-0.0882598459720611,-9.208444595336914,0.3432327508926391
2.8178775310516357,-0.0034906584769487,0.0,0.0,-0.107873149216175,-9.188830375671388,0.3236194550991058
2.822880268096924,-0.0052359877154231,0.0,0.0,-0.0882598459720611,-9.188830375671388,0.3236194550991058
2.82788348197937,-0.0052359877154231,0.0,0.0,-0.0882598459720611,-9.188830375671388,0.3236194550991058
2.832888126373291,0.0,0.0,0.0052359877154231,-0.127486452460289,-9.228057861328123,0.3432327508926391
2.8378913402557373,0.0,-0.0034906584769487,0.0,-0.0882598459720611,-9.188830375671388,0.3040061295032501
2.8428945541381836,-0.0052359877154231,0.0034906584769487,0.0,-0.0882598459720611,-9.188830375671388,0.3040061295032501
2.84789776802063,0.0,0.0052359877154231,0.0017453292384743,-0.0882598459720611,-9.228057861328123,0.3236194550991058
2.8529019355773926,-0.0034906584769487,0.0,0.0,-0.0882598459720611,-9.228057861328123,0.3236194550991058
2.857905149459839,-0.0034906584769487,0.0,0.0,-0.0882598459720611,-9.208444595336914,0.3432327508926391
2.862908363342285,0.0,0.0034906584769487,-0.0017453292384743,-0.127486452460289,-9.188830375671388,0.3432327508926391
2.8679122924804688,-0.0034906584769487,0.0,0.0,-0.127486452460289,-9.188830375671388,0.3432327508926391
2.872915744781494,-0.0017453292384743,-0.0017453292384743,-0.0017453292384743,-0.107873149216175,-9.208444595336914,0.3628460466861725
2.8779189586639404,-0.0052359877154231,0.0,0.0034906584769487,-0.0882598459720611,-9.208444595336914,0.3432327508926391
2.8829221725463867,0.0,0.0052359877154231,0.0,-0.107873149216175,-9.188830375671388,0.3824593424797058
2.8879263401031494,0.0,0.0052359877154231,0.0,-0.0686465501785278,-9.208444595336914,0.3236194550991058
2.8929290771484375,0.0,0.0,0.0,-0.0882598459720611,-9.208444595336914,0.3432327508926391
2.897932291030884,-0.0034906584769487,0.0017453292384743,0.0,-0.107873149216175,-9.228057861328123,0.3236194550991058
2.9029366970062256,-0.0052359877154231,0.0,0.0017453292384743,-0.0882598459720611,-9.208444595336914,0.3432327508926391
2.907939910888672,0.0,0.0017453292384743,0.0017453292384743,-0.127486452460289,-9.169217109680176,0.3628460466861725
2.912943124771118,-0.0034906584769487,0.0,-0.0017453292384743,-0.127486452460289,-9.208444595336914,0.3236194550991058
2.9179463386535645,-0.0052359877154231,0.0034906584769487,0.0017453292384743,-0.0882598459720611,-9.208444595336914,0.3236194550991058
2.922950267791748,0.0,0.0,0.0017453292384743,-0.107873149216175,-9.208444595336914,0.3432327508926391
2.9279534816741943,0.0,0.0,0.0017453292384743,-0.0882598459720611,-9.228057861328123,0.3628460466861725
2.9329566955566406,-0.0034906584769487,0.0052359877154231,0.0,-0.0686465501785278,-9.188830375671388,0.3432327508926391
2.937962293624878,-0.0052359877154231,0.0,0.0,-0.107873149216175,-9.208444595336914,0.3432327508926391
2.942967414855957,-0.0034906584769487,0.0,0.0034906584769487,-0.0882598459720611,-9.188830375671388,0.3432327508926391
2.947969675064087,-0.0034906584769487,0.0,0.0,-0.0882598459720611,-9.188830375671388,0.3824593424797058
2.9529731273651123,-0.0017453292384743,0.0,0.0,-0.0882598459720611,-9.188830375671388,0.3824593424797058
2.9579780101776123,-0.0034906584769487,0.0,0.0017453292384743,-0.0882598459720611,-9.188830375671388,0.3824593424797058
2.962981939315796,-0.0034906584769487,0.0,0.0017453292384743,-0.0686465501785278,-9.228057861328123,0.3432327508926391
2.9679858684539795,0.0,0.0,0.0,-0.0882598459720611,-9.208444595336914,0.3236194550991058
2.9729902744293213,0.0,0.0017453292384743,0.0,-0.107873149216175,-9.188830375671388,0.3236194550991058
2.977994441986084,-0.0017453292384743,0.0,0.0,-0.0882598459720611,-9.188830375671388,0.3236194550991058
2.9829983711242676,-0.0052359877154231,0.0017453292384743,0.0,-0.107873149216175,-9.228057861328123,0.3432327508926391
2.9880030155181885,-0.0017453292384743,0.0,0.0,-0.0882598459720611,-9.208444595336914,0.3040061295032501
2.993006706237793,-0.0017453292384743,0.0,-0.0017453292384743,-0.127486452460289,-9.188830375671388,0.3432327508926391
2.9980103969573975,-0.0017453292384743,-0.0017453292384743,0.0,-0.127486452460289,-9.188830375671388,0.3432327508926391
3.003014326095581,-0.0017453292384743,0.0,0.0,-0.107873149216175,-9.208444595336914,0.3628460466861725
3.0080180168151855,-0.0034906584769487,0.0,0.0017453292384743,-0.107873149216175,-9.188830375671388,0.3432327508926391
3.0130228996276855,-0.0017453292384743,0.0,0.0,-0.0882598459720611,-9.208444595336914,0.3432327508926391
3.018026828765869,0.0,0.0017453292384743,0.0017453292384743,-0.107873149216175,-9.188830375671388,0.3432327508926391
3.0230302810668945,-0.0017453292384743,0.0017453292384743,0.0,-0.107873149216175,-9.208444595336914,0.3432327508926391
3.0280354022979736,-0.0017453292384743,0.0034906584769487,0.0017453292384743,-0.0882598459720611,-9.228057861328123,0.3432327508926391
3.033039093017578,-0.0052359877154231,0.0017453292384743,0.0,-0.0882598459720611,-9.208444595336914,0.3432327508926391
3.0380427837371826,-0.0034906584769487,0.0,0.0017453292384743,-0.0882598459720611,-9.208444595336914,0.3040061295032501
3.043046712875366,-0.0017453292384743,0.0,0.0,-0.107873149216175,-9.188830375671388,0.3432327508926391
3.048051357269287,-0.0017453292384743,0.0,0.0,-0.127486452460289,-9.208444595336914,0.3432327508926391
3.0530552864074707,-0.0017453292384743,0.0034906584769487,0.0,-0.107873149216175,-9.188830375671388,0.3040061295032501
3.058058738708496,-0.0017453292384743,0.0034906584769487,0.0,-0.107873149216175,-9.208444595336914,0.3628460466861725
3.063063621520996,-0.0069813169538974,0.0034906584769487,-0.0017453292384743,-0.0882598459720611,-9.208444595336914,0.3628460466861725
3.0680670738220215,0.0,0.0017453292384743,0.0,-0.0882598459720611,-9.188830375671388,0.3432327508926391
3.073071002960205,-0.0052359877154231,0.0,0.0034906584769487,-0.127486452460289,-9.188830375671388,0.3824593424797058
3.078075885772705,-0.0034906584769487,0.0,0.0,-0.127486452460289,-9.188830375671388,0.3824593424797058
3.0830795764923096,-0.0034906584769487,0.0017453292384743,0.0017453292384743,-0.107873149216175,-9.208444595336914,0.3628460466861725
3.088083267211914,-0.0052359877154231,0.0,0.0,-0.0882598459720611,-9.208444595336914,0.3236194550991058
3.0930871963500977,-0.0052359877154231,0.0,0.0017453292384743,-0.107873149216175,-9.247671127319336,0.3236194550991058
3.0980920791625977,0.0,0.0,0.0,-0.107873149216175,-9.188830375671388,0.3236194550991058
3.103095531463623,-0.0034906584769487,0.0034906584769487,0.0017453292384743,-0.0882598459720611,-9.188830375671388,0.3236194550991058
3.1080989837646484,0.0,0.0,0.0,-0.107873149216175,-9.208444595336914,0.3628460466861725
3.113102674484253,0.0,0.0,-0.0017453292384743,-0.107873149216175,-9.208444595336914,0.3628460466861725
3.118107557296753,-0.0017453292384743,0.0,0.0,-0.0686465501785278,-9.208444595336914,0.3432327508926391
3.1231112480163574,-0.0034906584769487,0.0,0.0017453292384743,-0.107873149216175,-9.188830375671388,0.3236194550991058
3.128114938735962,-0.0034906584769487,0.0,-0.0017453292384743,-0.107873149216175,-9.188830375671388,0.3628460466861725
3.133119821548462,-0.0034906584769487,0.0,0.0017453292384743,-0.0882598459720611,-9.188830375671388,0.3824593424797058
3.1381235122680664,-0.0017453292384743,0.0,-0.0017453292384743,-0.107873149216175,-9.228057861328123,0.3432327508926391
3.143127202987671,-0.0017453292384743,0.0,0.0,-0.0882598459720611,-9.188830375671388,0.3236194550991058
3.148132085800171,0.0,0.0034906584769487,-0.0017453292384743,-0.0882598459720611,-9.208444595336914,0.3040061295032501
3.1531355381011963,-0.0017453292384743,0.0,0.0034906584769487,-0.0882598459720611,-9.188830375671388,0.3432327508926391
3.158139228820801,-0.0017453292384743,0.0,0.0,-0.107873149216175,-9.208444595336914,0.3236194550991058
3.1631438732147217,-0.0052359877154231,-0.0017453292384743,0.0017453292384743,-0.107873149216175,-9.208444595336914,0.3236194550991058
3.168147087097168,-0.0034906584769487,-0.0017453292384743,0.0,-0.0882598459720611,-9.188830375671388,0.3432327508926391
3.1731512546539307,-0.0017453292384743,0.0,0.0,-0.127486452460289,-9.208444595336914,0.3432327508926391
3.178154945373535,0.0,0.0,0.0,-0.127486452460289,-9.208444595336914,0.3432327508926391
3.183159589767456,-0.0052359877154231,0.0,0.0034906584769487,-0.107873149216175,-9.188830375671388,0.3432327508926391
3.1881632804870605,-0.0034906584769487,-0.0017453292384743,0.0,-0.0882598459720611,-9.188830375671388,0.3432327508926391
3.193166971206665,-0.0017453292384743,0.0,0.0,-0.107873149216175,-9.169217109680176,0.3236194550991058
3.1981709003448486,0.0,0.0017453292384743,0.0,-0.0882598459720611,-9.188830375671388,0.3236194550991058
3.2031750679016113,0.0,0.0,-0.0034906584769487,-0.107873149216175,-9.188830375671388,0.3432327508926391
3.208178997039795,-0.0017453292384743,0.0017453292384743,0.0,-0.107873149216175,-9.208444595336914,0.3236194550991058
3.2131824493408203,0.0,0.0034906584769487,0.0,-0.0882598459720611,-9.188830375671388,0.3432327508926391
3.218187093734741,-0.0052359877154231,0.0017453292384743,0.0017453292384743,-0.0686465501785278,-9.228057861328123,0.3236194550991058
3.2231905460357666,-0.0034906584769487,0.0,0.0034906584769487,-0.0882598459720611,-9.208444595336914,0.3432327508926391
3.228194236755371,-0.0034906584769487,0.0,0.0,-0.0882598459720611,-9.169217109680176,0.3432327508926391
3.2331979274749756,-0.0034906584769487,0.0,-0.0034906584769487,-0.107873149216175,-9.188830375671388,0.3628460466861725
3.2382025718688965,0.0,0.0,0.0,-0.107873149216175,-9.208444595336914,0.3432327508926391
3.243206262588501,-0.0052359877154231,0.0,0.0,-0.107873149216175,-9.208444595336914,0.3236194550991058
3.2482099533081055,-0.0017453292384743,0.0,0.0,-0.0882598459720611,-9.208444595336914,0.3432327508926391
3.253213405609131,-0.0034906584769487,0.0017453292384743,0.0,-0.107873149216175,-9.228057861328123,0.3628460466861725
3.2582180500030518,-0.0052359877154231,0.0,0.0,-0.0882598459720611,-9.208444595336914,0.3824593424797058
3.2632217407226562,-0.0017453292384743,0.0052359877154231,0.0017453292384743,-0.107873149216175,-9.188830375671388,0.3628460466861725
3.268226385116577,-0.0017453292384743,0.0,-0.0017453292384743,-0.107873149216175,-9.208444595336914,0.3432327508926391
3.2732300758361816,-0.0017453292384743,0.0052359877154231,0.0,-0.127486452460289,-9.188830375671388,0.3628460466861725
3.278233289718628,0.0,0.0052359877154231,0.0017453292384743,-0.0882598459720611,-9.208444595336914,0.3040061295032501
3.2832369804382324,-0.0017453292384743,0.0,0.0,-0.0882598459720611,-9.188830375671388,0.3236194550991058
3.2882416248321533,0.0,0.0,0.0,-0.107873149216175,-9.169217109680176,0.3236194550991058
3.2932450771331787,-0.0052359877154231,0.0017453292384743,0.0,-0.0882598459720611,-9.188830375671388,0.3432327508926391
3.298248767852783,-0.0017453292384743,0.0,0.0,-0.0882598459720611,-9.188830375671388,0.3628460466861725
3.3032524585723877,-0.0017453292384743,0.0,0.0,-0.0882598459720611,-9.188830375671388,0.3040061295032501
3.3082571029663086,-0.0017453292384743,0.0017453292384743,0.0,-0.0686465501785278,-9.208444595336914,0.3824593424797058
3.313260555267334,-0.0034906584769487,0.0,0.0017453292384743,-0.0686465501785278,-9.228057861328123,0.3432327508926391
3.3182642459869385,-0.0034906584769487,0.0017453292384743,-0.0017453292384743,-0.0686465501785278,-9.188830375671388,0.3236194550991058
3.323268413543701,0.0,0.0017453292384743,0.0,-0.127486452460289,-9.169217109680176,0.3236194550991058
3.3282721042633057,-0.0034906584769487,0.0017453292384743,0.0034906584769487,-0.0686465501785278,-9.208444595336914,0.3236194550991058
3.33327579498291,-0.0034906584769487,0.0,0.0,-0.107873149216175,-9.208444595336914,0.3432327508926391
3.3382792472839355,-0.0034906584769487,0.0034906584769487,0.0,-0.0882598459720611,-9.228057861328123,0.3236194550991058
3.3432838916778564,-0.0034906584769487,0.0017453292384743,-0.0017453292384743,-0.0882598459720611,-9.228057861328123,0.3236194550991058
3.348287343978882,0.0,0.0,0.0,-0.0882598459720611,-9.188830375671388,0.3628460466861725
3.3532912731170654,-0.0034906584769487,0.0,0.0,-0.107873149216175,-9.228057861328123,0.3824593424797058
3.3582956790924072,-0.0052359877154231,0.0,0.0017453292384743,-0.0686465501785278,-9.188830375671388,0.3628460466861725
3.3632991313934326,-0.0017453292384743,0.0,0.0,-0.107873149216175,-9.188830375671388,0.3432327508926391
3.368302583694458,-0.0052359877154231,0.0,-0.0017453292384743,-0.0882598459720611,-9.208444595336914,0.3628460466861725
3.3733069896698,-0.0034906584769487,0.0,0.0017453292384743,-0.127486452460289,-9.208444595336914,0.3432327508926391
3.378310441970825,-0.0069813169538974,0.0034906584769487,0.0,-0.127486452460289,-9.208444595336914,0.3432327508926391
3.3833141326904297,-0.0017453292384743,0.0034906584769487,0.0,-0.107873149216175,-9.208444595336914,0.3628460466861725
3.388317584991455,0.0,0.0,-0.0017453292384743,-0.107873149216175,-9.208444595336914,0.3040061295032501
3.393321990966797,0.0,0.0017453292384743,-0.0034906584769487,-0.107873149216175,-9.208444595336914,0.3432327508926391
3.3983256816864014,-0.0017453292384743,0.0,0.0,-0.107873149216175,-9.208444595336914,0.3432327508926391
3.4033291339874268,-0.0017453292384743,0.0,0.0,-0.107873149216175,-9.208444595336914,0.3432327508926391
3.4083337783813477,-0.0034906584769487,0.0,0.0,-0.0686465501785278,-9.188830375671388,0.3236194550991058
3.413337230682373,-0.0034906584769487,0.0,-0.0034906584769487,-0.107873149216175,-9.208444595336914,0.3628460466861725
3.4183404445648193,-0.0034906584769487,0.0,0.0,-0.107873149216175,-9.228057861328123,0.3236194550991058
3.423344850540161,0.0,0.0017453292384743,0.0,-0.107873149216175,-9.228057861328123,0.3236194550991058
3.428347587585449,-0.0052359877154231,0.0017453292384743,0.0,-0.107873149216175,-9.208444595336914,0.3628460466861725
3.433351993560791,-0.0034906584769487,0.0,0.0,-0.0882598459720611,-9.188830375671388,0.3432327508926391
3.4383556842803955,-0.0052359877154231,-0.0017453292384743,0.0,-0.0882598459720611,-9.188830375671388,0.3432327508926391
3.443358898162842,-0.0034906584769487,-0.0034906584769487,0.0,-0.107873149216175,-9.188830375671388,0.3628460466861725
3.4483635425567627,-0.0052359877154231,0.0,0.0017453292384743,-0.107873149216175,-9.188830375671388,0.3432327508926391
3.453366994857788,-0.0052359877154231,-0.0034906584769487,0.0,-0.0882598459720611,-9.208444595336914,0.3236194550991058
3.4583704471588135,-0.0034906584769487,0.0017453292384743,0.0,-0.0882598459720611,-9.228057861328123,0.3432327508926391
3.4633736610412598,0.0,0.0034906584769487,0.0,-0.107873149216175,-9.228057861328123,0.3236194550991058
3.4683783054351807,-0.0034906584769487,-0.0017453292384743,0.0017453292384743,-0.0686465501785278,-9.208444595336914,0.3628460466861725
3.473381757736206,-0.0017453292384743,0.0052359877154231,0.0,-0.107873149216175,-9.208444595336914,0.3236194550991058
3.4783852100372314,0.0,0.0017453292384743,0.0052359877154231,-0.127486452460289,-9.169217109680176,0.3432327508926391
3.4833896160125732,-0.0069813169538974,-0.0052359877154231,0.0,-0.0882598459720611,-9.188830375671388,0.3628460466861725
3.4883930683135986,-0.0017453292384743,0.0017453292384743,0.0,-0.107873149216175,-9.208444595336914,0.3824593424797058
3.493396282196045,0.0,0.0,0.0034906584769487,-0.127486452460289,-9.188830375671388,0.3628460466861725
3.4984006881713867,-0.0052359877154231,0.0034906584769487,0.0,-0.0882598459720611,-9.169217109680176,0.3236194550991058
3.503404378890991,-0.0034906584769487,-0.0034906584769487,0.0,-0.0882598459720611,-9.188830375671388,0.3628460466861725
3.5084075927734375,-0.0052359877154231,0.0034906584769487,0.0,-0.0882598459720611,-9.188830375671388,0.3628460466861725
3.513411283493042,-0.0052359877154231,-0.0017453292384743,0.0,-0.0686465501785278,-9.169217109680176,0.3628460466861725
3.518415689468384,0.0,0.0034906584769487,0.0,-0.107873149216175,-9.208444595336914,0.3236194550991058
3.52341890335083,-0.0017453292384743,0.0017453292384743,0.0017453292384743,-0.0882598459720611,-9.208444595336914,0.3236194550991058
3.5284223556518555,-0.0069813169538974,0.0,0.0,-0.127486452460289,-9.208444595336914,0.3628460466861725
3.5334267616271973,-0.0052359877154231,0.0,0.0,-0.0882598459720611,-9.208444595336914,0.3432327508926391
3.5384302139282227,-0.0034906584769487,-0.0034906584769487,0.0052359877154231,-0.0882598459720611,-9.208444595336914,0.3236194550991058
3.543433666229248,0.0,0.0,0.0,-0.0882598459720611,-9.188830375671388,0.3236194550991058
3.5484368801116943,-0.0034906584769487,0.0017453292384743,0.0,-0.0882598459720611,-9.188830375671388,0.3236194550991058
3.553441286087036,-0.0017453292384743,0.0,0.0,-0.0882598459720611,-9.247671127319336,0.3236194550991058
3.5584447383880615,-0.0052359877154231,0.0,0.0,-0.0882598459720611,-9.169217109680176,0.3432327508926391
3.5634491443634033,-0.0069813169538974,-0.0017453292384743,0.0,-0.0882598459720611,-9.208444595336914,0.3432327508926391
3.5684525966644287,-0.0034906584769487,0.0,0.0,-0.0686465501785278,-9.208444595336914,0.3432327508926391
3.573456048965454,-0.0017453292384743,0.0,0.0034906584769487,-0.0882598459720611,-9.188830375671388,0.3432327508926391
3.5784595012664795,-0.0017453292384743,0.0034906584769487,0.0,-0.0686465501785278,-9.208444595336914,0.3432327508926391
3.583462715148926,-0.0017453292384743,0.0,0.0,-0.0882598459720611,-9.188830375671388,0.3432327508926391
3.5884671211242676,-0.0052359877154231,0.0,0.0034906584769487,-0.0882598459720611,-9.208444595336914,0.3432327508926391
3.593470335006714,-0.0017453292384743,0.0,0.0,-0.0882598459720611,-9.208444595336914,0.3432327508926391
3.5984737873077393,-0.0017453292384743,0.0,0.0,-0.0882598459720611,-9.188830375671388,0.3432327508926391
3.603478193283081,-0.0034906584769487,-0.0017453292384743,0.0034906584769487,-0.0686465501785278,-9.208444595336914,0.3432327508926391
3.6084814071655273,-0.0017453292384743,0.0017453292384743,0.0,-0.0882598459720611,-9.188830375671388,0.3236194550991058
3.6134848594665527,-0.0034906584769487,0.0034906584769487,-0.0017453292384743,-0.0882598459720611,-9.169217109680176,0.3432327508926391
3.6184892654418945,-0.0052359877154231,-0.0017453292384743,0.0,-0.107873149216175,-9.208444595336914,0.3236194550991058
3.623492479324341,-0.0017453292384743,0.0017453292384743,0.0,-0.0882598459720611,-9.208444595336914,0.3432327508926391
3.628495931625366,-0.0034906584769487,0.0017453292384743,0.0,-0.0882598459720611,-9.188830375671388,0.3236194550991058
3.6334991455078125,-0.0034906584769487,0.0052359877154231,0.0,-0.0882598459720611,-9.149603843688965,0.3432327508926391
3.6385035514831543,-0.0034906584769487,0.0017453292384743,0.0,-0.107873149216175,-9.228057861328123,0.3236194550991058
3.6435067653656006,-0.0034906584769487,-0.0017453292384743,0.0,-0.0686465501785278,-9.208444595336914,0.3236194550991058
3.648510217666626,0.0,-0.0017453292384743,0.0034906584769487,-0.0882598459720611,-9.188830375671388,0.3432327508926391
3.6535134315490723,-0.0017453292384743,0.0,-0.0017453292384743,-0.107873149216175,-9.188830375671388,0.3236194550991058
3.658518075942993,-0.0052359877154231,0.0052359877154231,0.0034906584769487,-0.127486452460289,-9.208444595336914,0.3628460466861725
3.6635212898254395,-0.0017453292384743,0.0034906584769487,0.0017453292384743,-0.107873149216175,-9.188830375671388,0.3432327508926391
3.6685242652893066,-0.0034906584769487,0.0017453292384743,0.0017453292384743,-0.0882598459720611,-9.188830375671388,0.3628460466861725
3.6735286712646484,-0.0069813169538974,0.0,0.0052359877154231,-0.107873149216175,-9.188830375671388,0.3432327508926391
3.6785318851470947,0.0,0.0,0.0017453292384743,-0.107873149216175,-9.188830375671388,0.3236194550991058
3.68353533744812,-0.0034906584769487,0.0017453292384743,0.0,-0.0882598459720611,-9.208444595336914,0.3236194550991058
3.6885385513305664,0.0,0.0034906584769487,-0.0052359877154231,-0.107873149216175,-9.188830375671388,0.3236194550991058
3.693542957305908,-0.0017453292384743,0.0017453292384743,0.0034906584769487,-0.0882598459720611,-9.247671127319336,0.3628460466861725
3.6985461711883545,0.0,0.0,0.0,-0.0882598459720611,-9.188830375671388,0.3236194550991058
3.70354962348938,-0.0034906584769487,0.0,0.0017453292384743,-0.0882598459720611,-9.228057861328123,0.3432327508926391
3.7085537910461426,-0.0069813169538974,0.0017453292384743,0.0,-0.0686465501785278,-9.208444595336914,0.3432327508926391
3.713557004928589,0.0,0.0,0.0017453292384743,-0.0686465501785278,-9.188830375671388,0.3432327508926391
3.718560218811035,-0.0034906584769487,0.0017453292384743,0.0017453292384743,-0.0882598459720611,-9.188830375671388,0.3628460466861725
3.7235634326934814,-0.0052359877154231,0.0,0.0017453292384743,-0.0882598459720611,-9.188830375671388,0.3628460466861725
3.7285680770874023,-0.0034906584769487,0.0017453292384743,0.0,-0.0882598459720611,-9.188830375671388,0.3432327508926391
3.7335712909698486,0.0,-0.0034906584769487,0.0,-0.0882598459720611,-9.188830375671388,0.3432327508926391
3.738574266433716,-0.0034906584769487,0.0017453292384743,0.0034906584769487,-0.0686465501785278,-9.228057861328123,0.3628460466861725
3.7435786724090576,-0.0017453292384743,0.0,0.0,-0.0882598459720611,-9.208444595336914,0.3432327508926391
3.748581647872925,-0.0017453292384743,0.0017453292384743,0.0034906584769487,-0.0686465501785278,-9.188830375671388,0.3628460466861725
3.75358510017395,-0.0034906584769487,0.0,0.0034906584769487,-0.0882598459720611,-9.188830375671388,0.3628460466861725
3.7585883140563965,-0.0052359877154231,0.0017453292384743,-0.0017453292384743,-0.0882598459720611,-9.169217109680176,0.3628460466861725
3.763592481613159,-0.0017453292384743,0.0017453292384743,0.0,-0.0686465501785278,-9.188830375671388,0.3040061295032501
3.7685956954956055,-0.0017453292384743,0.0,0.0,-0.0882598459720611,-9.188830375671388,0.3432327508926391
3.773599147796631,-0.0034906584769487,0.0,0.0,-0.107873149216175,-9.208444595336914,0.3236194550991058
3.7786030769348145,-0.0052359877154231,0.0,0.0,-0.107873149216175,-9.228057861328123,0.3432327508926391
3.7836062908172607,-0.0017453292384743,0.0,0.0017453292384743,-0.127486452460289,-9.228057861328123,0.3432327508926391
3.788609504699707,-0.0017453292384743,0.0,0.0017453292384743,-0.127486452460289,-9.228057861328123,0.3432327508926391
3.7936127185821533,-0.0052359877154231,0.0,0.0,-0.0882598459720611,-9.188830375671388,0.3628460466861725
3.798617124557495,-0.0052359877154231,0.0,0.0,-0.107873149216175,-9.169217109680176,0.3432327508926391
3.8036203384399414,-0.0034906584769487,-0.0034906584769487,0.0017453292384743,-0.0882598459720611,-9.228057861328123,0.3824593424797058
3.8086235523223877,-0.0017453292384743,0.0,0.0034906584769487,-0.0882598459720611,-9.208444595336914,0.3236194550991058
3.8136274814605713,0.0,0.0,0.0,-0.0882598459720611,-9.208444595336914,0.3236194550991058
3.8186306953430176,-0.0052359877154231,0.0,0.0017453292384743,-0.0686465501785278,-9.188830375671388,0.3236194550991058
3.823633909225464,0.0,0.0,0.0017453292384743,-0.107873149216175,-9.228057861328123,0.3432327508926391
3.82863712310791,-0.0017453292384743,0.0017453292384743,-0.0017453292384743,-0.0686465501785278,-9.208444595336914,0.3628460466861725
3.833641529083252,-0.0017453292384743,0.0,0.0,-0.107873149216175,-9.188830375671388,0.3236194550991058
3.8386447429656982,-0.0052359877154231,0.0,0.0,-0.0686465501785278,-9.188830375671388,0.3432327508926391
3.8436479568481445,-0.0017453292384743,0.0017453292384743,0.0017453292384743,-0.0686465501785278,-9.188830375671388,0.3236194550991058
3.8486521244049072,-0.0017453292384743,0.0,0.0034906584769487,-0.107873149216175,-9.169217109680176,0.3432327508926391
3.8536553382873535,-0.0034906584769487,-0.0017453292384743,0.0,-0.107873149216175,-9.188830375671388,0.3236194550991058
3.8586583137512207,0.0,-0.0017453292384743,0.0,-0.107873149216175,-9.188830375671388,0.3236194550991058
3.8636624813079834,0.0,0.0,0.0,-0.0686465501785278,-9.188830375671388,0.3432327508926391
3.8686656951904297,-0.0034906584769487,-0.0034906584769487,0.0,-0.107873149216175,-9.208444595336914,0.3040061295032501
3.873668670654297,0.0,0.0034906584769487,0.0,-0.107873149216175,-9.228057861328123,0.3236194550991058
3.878671884536743,-0.0017453292384743,0.0017453292384743,0.0,-0.0686465501785278,-9.208444595336914,0.3432327508926391
3.883676052093506,-0.0017453292384743,0.0,0.0,-0.107873149216175,-9.169217109680176,0.3432327508926391
3.888679265975952,0.0,0.0,0.0,-0.0686465501785278,-9.208444595336914,0.3628460466861725
3.8936822414398193,-0.0017453292384743,0.0,0.0,-0.0686465501785278,-9.208444595336914,0.3628460466861725
3.8986856937408447,-0.0052359877154231,0.0,0.0,-0.0882598459720611,-9.188830375671388,0.3432327508926391
3.9036896228790283,-0.0034906584769487,0.0034906584769487,0.0,-0.107873149216175,-9.228057861328123,0.3628460466861725
3.9086928367614746,-0.0034906584769487,0.0052359877154231,0.0017453292384743,-0.107873149216175,-9.208444595336914,0.3236194550991058
3.913696050643921,-0.0017453292384743,0.0,-0.0017453292384743,-0.127486452460289,-9.208444595336914,0.3432327508926391
3.9186999797821045,-0.0052359877154231,0.0034906584769487,-0.0017453292384743,-0.107873149216175,-9.188830375671388,0.3628460466861725
3.923703193664551,-0.0034906584769487,-0.0017453292384743,0.0017453292384743,-0.107873149216175,-9.188830375671388,0.3628460466861725
3.928706169128418,0.0,0.0017453292384743,-0.0017453292384743,-0.107873149216175,-9.188830375671388,0.3628460466861725
3.9337103366851807,-0.0017453292384743,0.0,0.0034906584769487,-0.107873149216175,-9.188830375671388,0.3628460466861725
3.9387149810791016,-0.0052359877154231,0.0,0.0034906584769487,-0.0686465501785278,-9.208444595336914,0.3432327508926391
3.9437196254730225,-0.0052359877154231,0.0017453292384743,0.0,-0.107873149216175,-9.169217109680176,0.3432327508926391
3.9487240314483643,-0.0017453292384743,0.0,-0.0017453292384743,-0.0882598459720611,-9.208444595336914,0.3236194550991058
3.9537296295166016,0.0,-0.0017453292384743,0.0,-0.0882598459720611,-9.188830375671388,0.3432327508926391
3.9587342739105225,-0.0052359877154231,0.0087266461923718,0.0,-0.0882598459720611,-9.228057861328123,0.3236194550991058
3.9637386798858643,-0.0052359877154231,0.0,0.0017453292384743,-0.0882598459720611,-9.208444595336914,0.3432327508926391
3.9687442779541016,-0.0017453292384743,0.0052359877154231,0.0,-0.0882598459720611,-9.188830375671388,0.3236194550991058
3.9737486839294434,-0.0034906584769487,0.0,0.0,-0.107873149216175,-9.188830375671388,0.3432327508926391
3.978753089904785,-0.0017453292384743,0.0,-0.0017453292384743,-0.0882598459720611,-9.188830375671388,0.3628460466861725
3.983757734298706,0.0,0.0,0.0,-0.0882598459720611,-9.208444595336914,0.3432327508926391
3.9887630939483643,0.0,0.0034906584769487,0.0017453292384743,-0.107873149216175,-9.228057861328123,0.3040061295032501
3.993767738342285,-0.0034906584769487,0.0,0.0,-0.0882598459720611,-9.228057861328123,0.3040061295032501
3.998772382736206,-0.0069813169538974,0.0,0.0,-0.0882598459720611,-9.208444595336914,0.3628460466861725
4.003777742385864,-0.0017453292384743,0.0,0.0017453292384743,-0.0686465501785278,-9.169217109680176,0.3628460466861725
4.008782386779785,-0.0017453292384743,0.0017453292384743,0.0,-0.107873149216175,-9.228057861328123,0.3040061295032501
4.013786792755127,-0.0017453292384743,0.0,0.0,-0.107873149216175,-9.169217109680176,0.3628460466861725
4.018791675567627,-0.0034906584769487,0.0,0.0,-0.107873149216175,-9.188830375671388,0.3236194550991058
4.023796796798706,-0.0034906584769487,-0.0017453292384743,0.0034906584769487,-0.127486452460289,-9.208444595336914,0.3236194550991058
4.028801679611206,-0.0052359877154231,0.0,0.0,-0.107873149216175,-9.228057861328123,0.3628460466861725
4.033806085586548,-0.0017453292384743,0.0017453292384743,0.0,-0.107873149216175,-9.228057861328123,0.3040061295032501
4.038811206817627,-0.0017453292384743,-0.0017453292384743,0.0,-0.0882598459720611,-9.228057861328123,0.3040061295032501
4.043816089630127,-0.0034906584769487,0.0,0.0034906584769487,-0.0882598459720611,-9.228057861328123,0.3040061295032501
4.04882025718689,0.0,0.0,0.0,-0.107873149216175,-9.188830375671388,0.3236194550991058
4.053825616836548,-0.0017453292384743,0.0017453292384743,0.0,-0.107873149216175,-9.169217109680176,0.3040061295032501
4.058830261230469,-0.0017453292384743,0.0034906584769487,0.0,-0.107873149216175,-9.188830375671388,0.3236194550991058
4.0638346672058105,-0.0017453292384743,-0.0034906584769487,0.0,-0.107873149216175,-9.228057861328123,0.3628460466861725
4.068839073181152,-0.0052359877154231,0.0,0.0017453292384743,-0.0490332469344139,-9.228057861328123,0.3628460466861725
4.073843479156494,-0.0052359877154231,0.0017453292384743,0.0,-0.107873149216175,-9.208444595336914,0.3236194550991058
4.0788490772247314,-0.0087266461923718,-0.0017453292384743,0.0017453292384743,-0.0882598459720611,-9.208444595336914,0.3236194550991058
4.083853483200073,-0.0034906584769487,0.0017453292384743,0.0017453292384743,-0.0882598459720611,-9.208444595336914,0.3236194550991058
4.088857889175415,0.0,0.0087266461923718,0.0,-0.0882598459720611,-9.188830375671388,0.2843928337097168
4.093863487243652,0.0,0.0017453292384743,0.0,-0.0882598459720611,-9.208444595336914,0.3628460466861725
4.098867893218994,-0.0017453292384743,0.0,0.0,-0.107873149216175,-9.208444595336914,0.3236194550991058
4.103872299194336,-0.0034906584769487,0.0052359877154231,-0.0017453292384743,-0.107873149216175,-9.228057861328123,0.3236194550991058
4.108877658843994,-0.0034906584769487,0.0,0.0017453292384743,-0.107873149216175,-9.208444595336914,0.3432327508926391
4.113882303237915,-0.0052359877154231,0.0,0.0,-0.127486452460289,-9.188830375671388,0.3432327508926391
4.118886709213257,0.0,0.0,0.0,-0.0882598459720611,-9.188830375671388,0.3236194550991058
4.123892068862915,0.0,0.0,0.0034906584769487,-0.0882598459720611,-9.188830375671388,0.3236194550991058
4.128896474838257,-0.0034906584769487,0.0052359877154231,0.0,-0.0686465501785278,-9.228057861328123,0.3040061295032501
4.133900880813599,-0.0034906584769487,0.0,0.0017453292384743,-0.107873149216175,-9.188830375671388,0.3236194550991058
4.13890528678894,-0.0052359877154231,-0.0034906584769487,0.0017453292384743,-0.0882598459720611,-9.208444595336914,0.3628460466861725
4.143910884857178,-0.0017453292384743,0.0017453292384743,0.0,-0.0882598459720611,-9.208444595336914,0.3432327508926391
4.1489152908325195,-0.0017453292384743,0.0017453292384743,0.0,-0.0882598459720611,-9.188830375671388,0.3040061295032501
4.153919696807861,-0.0017453292384743,0.0,0.0,-0.107873149216175,-9.208444595336914,0.2843928337097168
4.158924102783203,-0.0034906584769487,0.0017453292384743,0.0017453292384743,-0.0882598459720611,-9.228057861328123,0.3628460466861725
4.16392970085144,0.0,0.0034906584769487,0.0,-0.0882598459720611,-9.208444595336914,0.3432327508926391
4.168933868408203,-0.0052359877154231,-0.0052359877154231,0.0017453292384743,-0.0686465501785278,-9.188830375671388,0.3432327508926391
4.173938274383545,-0.0034906584769487,0.0,0.0,-0.0686465501785278,-9.188830375671388,0.3432327508926391
4.178943634033203,-0.0034906584769487,0.0,0.0,-0.0882598459720611,-9.188830375671388,0.3432327508926391
4.183948040008545,-0.0034906584769487,0.0,0.0,-0.0882598459720611,-9.188830375671388,0.3236194550991058
4.188952445983887,-0.0017453292384743,0.0,0.0017453292384743,-0.0882598459720611,-9.169217109680176,0.3432327508926391
4.193957805633545,-0.0017453292384743,0.0,0.0,-0.0686465501785278,-9.208444595336914,0.3432327508926391
4.198962211608887,-0.0034906584769487,0.0,0.0,-0.0882598459720611,-9.188830375671388,0.3432327508926391
4.2039666175842285,0.0,0.0,0.0,-0.0686465501785278,-9.188830375671388,0.3040061295032501
4.20897102355957,-0.0052359877154231,0.0034906584769487,0.0,-0.107873149216175,-9.208444595336914,0.3432327508926391
4.2139763832092285,-0.0017453292384743,0.0,0.0017453292384743,-0.107873149216175,-9.208444595336914,0.3432327508926391
4.21898078918457,-0.0034906584769487,-0.0052359877154231,0.0017453292384743,-0.107873149216175,-9.208444595336914,0.3432327508926391
4.223985195159912,-0.0034906584769487,0.0,-0.0017453292384743,-0.107873149216175,-9.208444595336914,0.3432327508926391
4.22899055480957,0.0,-0.0017453292384743,0.0,-0.0882598459720611,-9.208444595336914,0.3236194550991058
4.233994960784912,-0.0052359877154231,0.0,0.0034906584769487,-0.0686465501785278,-9.228057861328123,0.3628460466861725
4.238999128341675,-0.0017453292384743,0.0034906584769487,0.0,-0.0882598459720611,-9.188830375671388,0.3236194550991058
4.2440032958984375,-0.0052359877154231,-0.0017453292384743,0.0,-0.0882598459720611,-9.188830375671388,0.3432327508926391
4.249008893966675,-0.0052359877154231,0.0,0.0017453292384743,-0.107873149216175,-9.188830375671388,0.3236194550991058
4.254013299942017,-0.0034906584769487,0.0052359877154231,0.0,-0.107873149216175,-9.169217109680176,0.3432327508926391
4.259017467498779,-0.0052359877154231,0.0034906584769487,0.0,-0.107873149216175,-9.188830375671388,0.3040061295032501
4.264021873474121,-0.0034906584769487,0.0017453292384743,0.0,-0.107873149216175,-9.169217109680176,0.3236194550991058
4.269027233123779,-0.0052359877154231,0.0,0.0,-0.0882598459720611,-9.228057861328123,0.3236194550991058
4.274031400680542,0.0,0.0,0.0017453292384743,-0.0882598459720611,-9.188830375671388,0.3236194550991058
4.279035806655884,0.0,0.0017453292384743,0.0017453292384743,-0.107873149216175,-9.188830375671388,0.3236194550991058
4.284041166305542,-0.0034906584769487,0.0,0.0,-0.0882598459720611,-9.208444595336914,0.3236194550991058
4.289045572280884,0.0017453292384743,0.0017453292384743,0.0,-0.0686465501785278,-9.188830375671388,0.3236194550991058
4.2940497398376465,0.0,0.0,0.0017453292384743,-0.0882598459720611,-9.228057861328123,0.3040061295032501
4.299055099487305,-0.0017453292384743,0.0017453292384743,0.0,-0.0882598459720611,-9.208444595336914,0.3628460466861725
4.3040595054626465,-0.0034906584769487,0.0,0.0017453292384743,-0.0882598459720611,-9.188830375671388,0.3040061295032501
4.309063911437988,-0.0069813169538974,0.0,0.0,-0.107873149216175,-9.208444595336914,0.3432327508926391
4.314068078994751,-0.0017453292384743,0.0034906584769487,0.0,-0.0882598459720611,-9.188830375671388,0.3432327508926391
4.319073677062988,-0.0034906584769487,0.0,0.0034906584769487,-0.0882598459720611,-9.188830375671388,0.3432327508926391
4.32407808303833,-0.0034906584769487,0.0017453292384743,0.0,-0.0882598459720611,-9.208444595336914,0.3432327508926391
4.329082012176514,-0.0017453292384743,0.0052359877154231,0.0,-0.107873149216175,-9.208444595336914,0.3236194550991058
4.334087371826172,0.0,0.0069813169538974,0.0,-0.0882598459720611,-9.228057861328123,0.3040061295032501
4.339091777801514,-0.0017453292384743,0.0017453292384743,0.0017453292384743,-0.0686465501785278,-9.188830375671388,0.3432327508926391
4.344095945358276,-0.0052359877154231,0.0,0.0,-0.107873149216175,-9.208444595336914,0.3236194550991058
4.349100351333618,-0.0052359877154231,0.0,0.0017453292384743,-0.107873149216175,-9.208444595336914,0.3236194550991058
4.354105472564697,0.0,0.0034906584769487,0.0,-0.107873149216175,-9.228057861328123,0.3236194550991058
4.359109878540039,-0.0052359877154231,0.0,0.0,-0.107873149216175,-9.208444595336914,0.3628460466861725
4.364114284515381,-0.0017453292384743,-0.0017453292384743,0.0,-0.0686465501785278,-9.188830375671388,0.3628460466861725
4.36911940574646,-0.0034906584769487,0.0,0.0017453292384743,-0.0882598459720611,-9.208444595336914,0.3628460466861725
4.374123811721802,-0.0052359877154231,0.0,0.0,-0.0882598459720611,-9.188830375671388,0.3628460466861725
4.3791279792785645,-0.0017453292384743,0.0,0.0,-0.0882598459720611,-9.169217109680176,0.3432327508926391
4.384132385253906,-0.0034906584769487,0.0017453292384743,0.0017453292384743,-0.127486452460289,-9.188830375671388,0.3432327508926391
4.389137506484985,-0.0034906584769487,0.0,0.0,-0.0882598459720611,-9.188830375671388,0.3432327508926391
4.394141912460327,-0.0052359877154231,0.0,0.0,-0.107873149216175,-9.208444595336914,0.3432327508926391
4.39914608001709,-0.0034906584769487,0.0,0.0,-0.127486452460289,-9.228057861328123,0.3236194550991058
4.404151678085327,-0.0052359877154231,-0.0017453292384743,0.0,-0.0882598459720611,-9.208444595336914,0.3040061295032501
4.409155607223511,-0.0052359877154231,0.0,0.0,-0.107873149216175,-9.188830375671388,0.3432327508926391
4.414159774780273,-0.0017453292384743,0.0034906584769487,0.0017453292384743,-0.0686465501785278,-9.208444595336914,0.3628460466861725
4.419163942337036,-0.0052359877154231,0.0034906584769487,0.0017453292384743,-0.107873149216175,-9.208444595336914,0.3432327508926391
4.424169301986694,-0.0017453292384743,0.0,0.0,-0.107873149216175,-9.169217109680176,0.3432327508926391
4.429173469543457,-0.0034906584769487,0.0,0.0017453292384743,-0.0882598459720611,-9.228057861328123,0.3236194550991058
4.43417763710022,-0.0069813169538974,0.0,0.0034906584769487,-0.107873149216175,-9.169217109680176,0.3236194550991058
4.439182996749878,-0.0017453292384743,0.0,0.0017453292384743,-0.0882598459720611,-9.208444595336914,0.3432327508926391
4.444187164306641,-0.0052359877154231,0.0034906584769487,0.0017453292384743,-0.107873149216175,-9.188830375671388,0.3236194550991058
4.449191093444824,0.0,0.0052359877154231,0.0,-0.0882598459720611,-9.208444595336914,0.3432327508926391
4.454195737838745,-0.0034906584769487,0.0,-0.0017453292384743,-0.107873149216175,-9.208444595336914,0.3628460466861725
4.459200859069824,-0.0017453292384743,0.0,0.0,-0.107873149216175,-9.188830375671388,0.3628460466861725
4.464205026626587,0.0,-0.0017453292384743,0.0034906584769487,-0.0882598459720611,-9.208444595336914,0.3432327508926391
4.469209432601929,-0.0034906584769487,-0.0017453292384743,0.0,-0.0882598459720611,-9.208444595336914,0.3628460466861725
4.474214553833008,0.0,0.0,0.0,-0.0882598459720611,-9.188830375671388,0.3236194550991058
4.4792187213897705,-0.0017453292384743,0.0017453292384743,0.0034906584769487,-0.0686465501785278,-9.228057861328123,0.3628460466861725
4.484223127365112,-0.0034906584769487,-0.0017453292384743,0.0,-0.0686465501785278,-9.228057861328123,0.3628460466861725
4.489227294921875,-0.0052359877154231,0.0,0.0017453292384743,-0.0882598459720611,-9.228057861328123,0.3628460466861725
4.494232416152954,-0.0052359877154231,0.0052359877154231,0.0017453292384743,-0.107873149216175,-9.188830375671388,0.3432327508926391
4.499236583709717,0.0,0.0,-0.0034906584769487,-0.127486452460289,-9.208444595336914,0.3432327508926391
4.504240989685059,-0.0052359877154231,0.0,0.0,-0.107873149216175,-9.188830375671388,0.3236194550991058
4.509246110916138,-0.0017453292384743,0.0052359877154231,0.0,-0.107873149216175,-9.208444595336914,0.3236194550991058
4.5142502784729,-0.0017453292384743,0.0,0.0,-0.107873149216175,-9.208444595336914,0.3236194550991058
4.519254446029663,-0.0052359877154231,0.0,0.0,-0.0882598459720611,-9.208444595336914,0.3628460466861725
4.524258613586426,-0.0034906584769487,-0.0017453292384743,0.0,-0.0882598459720611,-9.208444595336914,0.3628460466861725
4.529263973236084,-0.0034906584769487,0.0,0.0,-0.0882598459720611,-9.228057861328123,0.3628460466861725
4.534268140792847,-0.0017453292384743,0.0034906584769487,0.0,-0.0686465501785278,-9.208444595336914,0.3432327508926391
4.539272308349609,0.0,0.0,0.0017453292384743,-0.0882598459720611,-9.188830375671388,0.3040061295032501
4.5442774295806885,-0.0069813169538974,-0.0017453292384743,0.0034906584769487,-0.107873149216175,-9.188830375671388,0.3236194550991058
4.549281358718872,-0.0069813169538974,0.0,0.0,-0.107873149216175,-9.188830375671388,0.3432327508926391
4.554285526275635,-0.0017453292384743,0.0,0.0,-0.0490332469344139,-9.208444595336914,0.3628460466861725
4.5592896938323975,-0.0052359877154231,0.0,0.0,-0.0490332469344139,-9.188830375671388,0.3432327508926391
4.564294815063477,0.0,0.0017453292384743,0.0,-0.107873149216175,-9.188830375671388,0.3236194550991058
4.569298982620239,-0.0034906584769487,-0.0017453292384743,0.0034906584769487,-0.0686465501785278,-9.208444595336914,0.3432327508926391
4.574303150177002,-0.0052359877154231,0.0017453292384743,0.0017453292384743,-0.127486452460289,-9.188830375671388,0.3040061295032501
4.579308271408081,-0.0052359877154231,-0.0034906584769487,0.0,-0.107873149216175,-9.169217109680176,0.3236194550991058
4.584312677383423,0.0,0.0034906584769487,0.0,-0.107873149216175,-9.169217109680176,0.3236194550991058
4.5893168449401855,-0.0034906584769487,0.0034906584769487,0.0,-0.127486452460289,-9.208444595336914,0.3432327508926391
4.594321966171265,-0.0017453292384743,0.0,0.0,-0.107873149216175,-9.188830375671388,0.3432327508926391
4.599326133728027,-0.0052359877154231,-0.0017453292384743,0.0,-0.107873149216175,-9.208444595336914,0.3628460466861725
4.604330062866211,-0.0052359877154231,0.0017453292384743,0.0,-0.107873149216175,-9.228057861328123,0.3236194550991058
4.609334230422974,-0.0034906584769487,-0.0017453292384743,0.0017453292384743,-0.0882598459720611,-9.228057861328123,0.3236194550991058
4.614339351654053,0.0034906584769487,0.0,0.0034906584769487,-0.0686465501785278,-9.208444595336914,0.3628460466861725
4.619343519210815,-0.0034906584769487,0.0017453292384743,0.0,-0.0686465501785278,-9.208444595336914,0.3628460466861725
4.624347686767578,-0.0034906584769487,0.0017453292384743,0.0,-0.107873149216175,-9.188830375671388,0.3432327508926391
4.629352807998657,-0.0017453292384743,0.0,0.0017453292384743,-0.0882598459720611,-9.188830375671388,0.3432327508926391
4.63435697555542,-0.0034906584769487,0.0,0.0,-0.107873149216175,-9.208444595336914,0.3432327508926391
4.639361143112183,0.0034906584769487,0.0,0.0,-0.0882598459720611,-9.208444595336914,0.3432327508926391
4.644365072250366,-0.0017453292384743,0.0017453292384743,0.0,-0.107873149216175,-9.188830375671388,0.3628460466861725
4.649370431900024,-0.0052359877154231,0.0,0.0,-0.0686465501785278,-9.188830375671388,0.3432327508926391
4.654374599456787,-0.0052359877154231,-0.0017453292384743,0.0017453292384743,-0.107873149216175,-9.169217109680176,0.3628460466861725
4.659378290176392,-0.0052359877154231,0.0,0.0,-0.107873149216175,-9.228057861328123,0.3628460466861725
4.664383411407471,-0.0034906584769487,0.0,0.0,-0.107873149216175,-9.228057861328123,0.3628460466861725
4.669387578964233,-0.0017453292384743,0.0,0.0,-0.0882598459720611,-9.188830375671388,0.3236194550991058
4.674391746520996,-0.0052359877154231,0.0034906584769487,0.0017453292384743,-0.0882598459720611,-9.208444595336914,0.3432327508926391
4.679396867752075,-0.0017453292384743,0.0017453292384743,-0.0034906584769487,-0.107873149216175,-9.208444595336914,0.3432327508926391
4.684400796890259,0.0,0.0052359877154231,-0.0017453292384743,-0.107873149216175,-9.208444595336914,0.3236194550991058
4.6894049644470215,-0.0034906584769487,0.0,0.0,-0.0882598459720611,-9.149603843688965,0.3628460466861725
4.694409132003784,-0.0017453292384743,-0.0034906584769487,0.0052359877154231,-0.107873149216175,-9.188830375671388,0.3236194550991058
4.699414253234863,-0.0052359877154231,0.0017453292384743,0.0017453292384743,-0.107873149216175,-9.208444595336914,0.3432327508926391
4.704418182373047,0.0,0.0,0.0,-0.0882598459720611,-9.208444595336914,0.3040061295032501
4.70942234992981,0.0,0.0,0.0,-0.0686465501785278,-9.188830375671388,0.3236194550991058
4.714426279067993,-0.0017453292384743,0.0052359877154231,-0.0017453292384743,-0.107873149216175,-9.188830375671388,0.3432327508926391
4.719431400299072,0.0,0.0017453292384743,-0.0034906584769487,-0.127486452460289,-9.208444595336914,0.3236194550991058
4.724435567855835,-0.0034906584769487,0.0,0.0,-0.107873149216175,-9.188830375671388,0.3432327508926391
4.729439735412598,-0.0017453292384743,0.0,0.0,-0.0686465501785278,-9.188830375671388,0.3236194550991058
4.734444618225098,0.0,0.0017453292384743,0.0,-0.127486452460289,-9.208444595336914,0.3236194550991058
4.73944878578186,0.0,0.0017453292384743,0.0017453292384743,-0.127486452460289,-9.228057861328123,0.3236194550991058
4.744452953338623,-0.0017453292384743,0.0,0.0,-0.127486452460289,-9.228057861328123,0.3236194550991058
4.749456882476807,-0.0052359877154231,-0.0017453292384743,0.0,-0.107873149216175,-9.208444595336914,0.3236194550991058
4.754462003707886,-0.0017453292384743,0.0017453292384743,0.0,-0.0882598459720611,-9.188830375671388,0.3432327508926391
4.75946569442749,-0.0034906584769487,0.0,0.0,-0.0882598459720611,-9.188830375671388,0.3236194550991058
4.764470100402832,-0.0052359877154231,-0.0017453292384743,0.0034906584769487,-0.127486452460289,-9.208444595336914,0.3432327508926391
4.769474983215332,-0.0034906584769487,0.0,-0.0017453292384743,-0.107873149216175,-9.188830375671388,0.3236194550991058
4.7744786739349365,-0.0069813169538974,0.0,0.0,-0.0882598459720611,-9.188830375671388,0.3236194550991058
4.779483079910278,0.0,0.0,0.0,-0.0686465501785278,-9.188830375671388,0.3432327508926391
4.784487009048462,-0.0017453292384743,0.0034906584769487,0.0,-0.107873149216175,-9.188830375671388,0.3236194550991058
4.789492130279541,-0.0052359877154231,0.0,0.0,-0.0882598459720611,-9.188830375671388,0.3236194550991058
4.794496059417725,-0.0052359877154231,0.0,0.0034906584769487,-0.107873149216175,-9.208444595336914,0.3040061295032501
4.799500226974487,0.0,-0.0017453292384743,0.0,-0.0882598459720611,-9.188830375671388,0.3236194550991058
4.804505109786987,-0.0052359877154231,0.0,0.0017453292384743,-0.0882598459720611,-9.208444595336914,0.3628460466861725
4.80950927734375,-0.0034906584769487,0.0,0.0,-0.0882598459720611,-9.188830375671388,0.3628460466861725
4.814513206481934,-0.0052359877154231,0.0,0.0,-0.107873149216175,-9.208444595336914,0.3432327508926391
4.819517374038696,-0.0017453292384743,0.0034906584769487,0.0017453292384743,-0.0882598459720611,-9.208444595336914,0.3236194550991058
4.824522256851196,0.0,0.0034906584769487,-0.0017453292384743,-0.107873149216175,-9.228057861328123,0.3628460466861725
4.82952618598938,-0.0017453292384743,0.0017453292384743,0.0,-0.107873149216175,-9.188830375671388,0.3628460466861725
4.834530353546143,-0.0034906584769487,0.0,0.0,-0.127486452460289,-9.208444595336914,0.3432327508926391
4.839535236358643,-0.0052359877154231,0.0,0.0,-0.0882598459720611,-9.208444595336914,0.3236194550991058
4.844539165496826,-0.0034906584769487,0.0,0.0,-0.127486452460289,-9.188830375671388,0.3236194550991058
4.84954309463501,0.0,-0.0034906584769487,0.0,-0.0882598459720611,-9.188830375671388,0.3236194550991058
4.85454797744751,-0.0052359877154231,0.0,0.0,-0.107873149216175,-9.188830375671388,0.3432327508926391
4.8595521450042725,-0.0052359877154231,0.0,0.0,-0.0882598459720611,-9.208444595336914,0.3432327508926391
4.864556074142456,-0.0034906584769487,0.0,-0.0017453292384743,-0.107873149216175,-9.169217109680176,0.3432327508926391
4.869560956954956,-0.0017453292384743,0.0,0.0017453292384743,-0.107873149216175,-9.208444595336914,0.3432327508926391
4.874565124511719,-0.0017453292384743,0.0,0.0,-0.107873149216175,-9.188830375671388,0.3432327508926391
4.8795692920684814,-0.0034906584769487,0.0052359877154231,0.0017453292384743,-0.1470997482538223,-9.208444595336914,0.3432327508926391
4.884572982788086,-0.0034906584769487,0.0034906584769487,0.0017453292384743,-0.1470997482538223,-9.208444595336914,0.3432327508926391
4.889577865600586,-0.0017453292384743,0.0034906584769487,0.0,-0.0686465501785278,-9.188830375671388,0.3236194550991058
4.894582033157349,-0.0052359877154231,0.0,-0.0017453292384743,-0.107873149216175,-9.188830375671388,0.3432327508926391
4.899585962295532,-0.0017453292384743,0.0,0.0,-0.0882598459720611,-9.188830375671388,0.3236194550991058
4.904589891433716,-0.0052359877154231,0.0034906584769487,0.0017453292384743,-0.107873149216175,-9.169217109680176,0.3236194550991058
4.909594774246216,-0.0017453292384743,0.0,-0.0017453292384743,-0.107873149216175,-9.208444595336914,0.3432327508926391
4.914598703384399,-0.0034906584769487,0.0,0.0,-0.107873149216175,-9.208444595336914,0.3628460466861725
4.919602870941162,-0.0034906584769487,0.0,0.0,-0.0882598459720611,-9.188830375671388,0.3628460466861725
4.924607753753662,0.0,0.0052359877154231,0.0,-0.0882598459720611,-9.169217109680176,0.3432327508926391
4.929611682891846,-0.0069813169538974,0.0017453292384743,0.0,-0.107873149216175,-9.208444595336914,0.3628460466861725
4.93461537361145,-0.0052359877154231,-0.0017453292384743,0.0017453292384743,-0.0882598459720611,-9.247671127319336,0.3236194550991058
4.939619302749634,-0.0017453292384743,0.0,-0.0017453292384743,-0.0882598459720611,-9.228057861328123,0.3628460466861725
4.944624423980713,-0.0017453292384743,-0.0017453292384743,0.0034906584769487,-0.0882598459720611,-9.188830375671388,0.3236194550991058
4.9496283531188965,-0.0017453292384743,0.0,0.0,-0.0882598459720611,-9.208444595336914,0.3628460466861725
4.95463228225708,0.0017453292384743,0.0034906584769487,0.0,-0.107873149216175,-9.188830375671388,0.3628460466861725
4.959636449813843,-0.0017453292384743,0.0017453292384743,0.0,-0.107873149216175,-9.208444595336914,0.3236194550991058
4.964641094207764,0.0,0.0017453292384743,-0.0017453292384743,-0.107873149216175,-9.188830375671388,0.3236194550991058
4.969645261764526,-0.0034906584769487,0.0,0.0,-0.107873149216175,-9.188830375671388,0.3432327508926391
4.97464919090271,-0.0034906584769487,0.0,0.0034906584769487,-0.127486452460289,-9.188830375671388,0.3236194550991058
4.97965407371521,-0.0017453292384743,0.0052359877154231,0.0,-0.127486452460289,-9.188830375671388,0.3236194550991058
4.9846580028533936,-0.0017453292384743,0.0,0.0,-0.127486452460289,-9.188830375671388,0.3432327508926391
4.989662170410156,-0.0052359877154231,0.0,0.0052359877154231,-0.107873149216175,-9.188830375671388,0.3236194550991058
4.994667291641235,-0.0052359877154231,0.0034906584769487,0.0,-0.0882598459720611,-9.208444595336914,0.3432327508926391
4.99967098236084,-0.0034906584769487,0.0,0.0,-0.0882598459720611,-9.208444595336914,0.3432327508926391
5.004674673080444,-0.0017453292384743,0.0052359877154231,0.0,-0.0686465501785278,-9.208444595336914,0.3432327508926391
5.009678602218628,-0.0052359877154231,0.0,0.0034906584769487,-0.0882598459720611,-9.228057861328123,0.3236194550991058
5.014683485031128,0.0,0.0017453292384743,0.0,-0.0882598459720611,-9.188830375671388,0.3236194550991058
5.0196874141693115,-0.0034906584769487,0.0017453292384743,0.0034906584769487,-0.107873149216175,-9.228057861328123,0.3432327508926391
5.024691343307495,-0.0017453292384743,-0.0034906584769487,0.0034906584769487,-0.107873149216175,-9.188830375671388,0.3432327508926391
5.029696226119995,-0.0052359877154231,0.0,-0.0017453292384743,-0.127486452460289,-9.169217109680176,0.3040061295032501
5.034700155258179,-0.0034906584769487,0.0,0.0017453292384743,-0.0882598459720611,-9.208444595336914,0.3432327508926391
5.039704084396362,-0.0017453292384743,0.0,0.0017453292384743,-0.0882598459720611,-9.188830375671388,0.3628460466861725
5.044708013534546,-0.0052359877154231,0.0017453292384743,0.0,-0.107873149216175,-9.169217109680176,0.3236194550991058
5.049712896347046,-0.0017453292384743,0.0017453292384743,0.0,-0.107873149216175,-9.228057861328123,0.3432327508926391
5.0547168254852295,-0.0052359877154231,0.0017453292384743,0.0017453292384743,-0.0686465501785278,-9.208444595336914,0.3432327508926391
5.059720754623413,-0.0017453292384743,0.0,0.0034906584769487,-0.0882598459720611,-9.188830375671388,0.3432327508926391
5.064725637435913,0.0,0.0,0.0017453292384743,-0.107873149216175,-9.169217109680176,0.3432327508926391
5.069729566574097,-0.0017453292384743,0.0017453292384743,0.0,-0.107873149216175,-9.228057861328123,0.3824593424797058
5.074733018875122,-0.0052359877154231,-0.0017453292384743,0.0017453292384743,-0.0882598459720611,-9.228057861328123,0.3432327508926391
5.079737901687622,-0.0017453292384743,0.0017453292384743,-0.0017453292384743,-0.107873149216175,-9.188830375671388,0.3236194550991058
5.084741830825806,-0.0034906584769487,-0.0017453292384743,0.0034906584769487,-0.127486452460289,-9.208444595336914,0.3432327508926391
5.089745759963989,0.0,-0.0034906584769487,0.0,-0.107873149216175,-9.188830375671388,0.3236194550991058
5.094749689102173,-0.0087266461923718,-0.0052359877154231,0.0017453292384743,-0.0882598459720611,-9.208444595336914,0.3236194550991058
5.099754571914673,-0.0034906584769487,0.0,0.0017453292384743,-0.107873149216175,-9.188830375671388,0.3628460466861725
5.104758262634277,-0.0034906584769487,0.0,0.0,-0.127486452460289,-9.228057861328123,0.3236194550991058
5.109762191772461,0.0,0.0,0.0,-0.0882598459720611,-9.188830375671388,0.3432327508926391
5.114767074584961,-0.0052359877154231,0.0,0.0052359877154231,-0.107873149216175,-9.208444595336914,0.3236194550991058
5.1197710037231445,0.0,0.0,0.0,-0.107873149216175,-9.208444595336914,0.3432327508926391
5.124774694442749,0.0,0.0034906584769487,0.0,-0.0882598459720611,-9.228057861328123,0.3628460466861725
5.129779577255249,-0.0069813169538974,0.0,0.0,-0.0882598459720611,-9.208444595336914,0.3236194550991058
5.134783506393433,-0.0034906584769487,0.0,0.0,-0.0882598459720611,-9.208444595336914,0.3236194550991058
5.139787673950195,-0.0017453292384743,0.0,0.0,-0.0882598459720611,-9.188830375671388,0.3236194550991058
5.144790887832642,-0.0034906584769487,0.0,0.0,-0.0686465501785278,-9.188830375671388,0.3236194550991058
5.149795770645142,-0.0052359877154231,0.0017453292384743,0.0,-0.0882598459720611,-9.188830375671388,0.3236194550991058
5.154799699783325,-0.0017453292384743,0.0,0.0,-0.0882598459720611,-9.208444595336914,0.3040061295032501
5.15980339050293,-0.0052359877154231,0.0,0.0,-0.0882598459720611,-9.169217109680176,0.3432327508926391
5.16480827331543,-0.0034906584769487,0.0017453292384743,0.0,-0.107873149216175,-9.188830375671388,0.3432327508926391
5.169811964035034,-0.0034906584769487,0.0,0.0,-0.0686465501785278,-9.208444595336914,0.3236194550991058
5.174815893173218,-0.0052359877154231,0.0,0.0,-0.107873149216175,-9.169217109680176,0.3432327508926391
5.179819822311401,-0.0052359877154231,-0.0017453292384743,0.0034906584769487,-0.0882598459720611,-9.208444595336914,0.3236194550991058
5.184824466705322,0.0,0.0,0.0,-0.0686465501785278,-9.169217109680176,0.3040061295032501
5.189828395843506,-0.0034906584769487,0.0,0.0,-0.107873149216175,-9.208444595336914,0.3628460466861725
5.19483208656311,-0.0052359877154231,0.0,0.0,-0.0686465501785278,-9.208444595336914,0.3628460466861725
5.19983696937561,-0.0017453292384743,0.0,0.0034906584769487,-0.0686465501785278,-9.208444595336914,0.3236194550991058
5.204840898513794,-0.0017453292384743,0.0,0.0,-0.0882598459720611,-9.208444595336914,0.3432327508926391
5.209844350814819,0.0,-0.0034906584769487,0.0,-0.127486452460289,-9.169217109680176,0.3236194550991058
5.214848041534424,-0.0017453292384743,0.0034906584769487,0.0,-0.0686465501785278,-9.208444595336914,0.3432327508926391
5.219852685928345,-0.0034906584769487,0.0,0.0017453292384743,-0.0686465501785278,-9.208444595336914,0.3432327508926391
5.224856615066528,-0.0017453292384743,0.0,0.0,-0.0686465501785278,-9.188830375671388,0.3432327508926391
5.229860544204712,0.0,0.0017453292384743,0.0,-0.107873149216175,-9.188830375671388,0.3432327508926391
5.234865188598633,-0.0017453292384743,0.0,0.0,-0.107873149216175,-9.188830375671388,0.3432327508926391
5.239868879318237,-0.0017453292384743,0.0,0.0,-0.0882598459720611,-9.208444595336914,0.2843928337097168
5.244872808456421,-0.0017453292384743,0.0052359877154231,0.0,-0.0882598459720611,-9.169217109680176,0.3432327508926391
5.249876499176025,-0.0034906584769487,0.0017453292384743,0.0017453292384743,-0.107873149216175,-9.208444595336914,0.3040061295032501
5.254881381988525,-0.0034906584769487,0.0017453292384743,0.0,-0.0882598459720611,-9.208444595336914,0.3236194550991058
5.25988507270813,-0.0017453292384743,-0.0017453292384743,0.0,-0.0882598459720611,-9.188830375671388,0.3628460466861725
5.264888763427734,0.0,-0.0017453292384743,0.0034906584769487,-0.107873149216175,-9.208444595336914,0.3628460466861725
5.269893646240234,0.0,-0.0017453292384743,0.0,-0.0882598459720611,-9.228057861328123,0.3236194550991058
5.27489709854126,0.0,0.0052359877154231,0.0,-0.107873149216175,-9.188830375671388,0.3432327508926391
5.279900789260864,-0.0017453292384743,0.0017453292384743,0.0034906584769487,-0.0882598459720611,-9.208444595336914,0.3432327508926391
5.284905672073364,-0.0034906584769487,0.0017453292384743,0.0052359877154231,-0.107873149216175,-9.188830375671388,0.3040061295032501
5.289909362792969,-0.0034906584769487,-0.0017453292384743,0.0034906584769487,-0.0490332469344139,-9.188830375671388,0.3236194550991058
5.294913291931152,0.0,0.0,0.0,-0.0686465501785278,-9.188830375671388,0.3040061295032501
5.299916744232178,-0.0034906584769487,0.0,0.0017453292384743,-0.107873149216175,-9.188830375671388,0.3236194550991058
5.304920434951782,-0.0017453292384743,0.0,0.0,-0.107873149216175,-9.208444595336914,0.3236194550991058
5.309925079345703,0.0,0.0017453292384743,-0.0017453292384743,-0.107873149216175,-9.208444595336914,0.3236194550991058
5.314929008483887,-0.0034906584769487,0.0017453292384743,0.0,-0.0882598459720611,-9.208444595336914,0.3432327508926391
5.319932699203491,-0.0017453292384743,0.0034906584769487,0.0,-0.0882598459720611,-9.208444595336914,0.3236194550991058
5.324937343597412,-0.0052359877154231,0.0017453292384743,0.0017453292384743,-0.0882598459720611,-9.228057861328123,0.3432327508926391
5.3299407958984375,-0.0034906584769487,0.0,0.0017453292384743,-0.0882598459720611,-9.208444595336914,0.3236194550991058
5.334944486618042,-0.0017453292384743,0.0017453292384743,0.0052359877154231,-0.107873149216175,-9.188830375671388,0.3432327508926391
5.339949369430542,-0.0052359877154231,0.0,0.0,-0.0882598459720611,-9.208444595336914,0.3628460466861725
5.344953298568726,-0.0034906584769487,0.0,0.0,-0.0882598459720611,-9.188830375671388,0.3432327508926391
5.349956750869751,0.0,0.0,0.0,-0.107873149216175,-9.208444595336914,0.3628460466861725
5.3549604415893555,-0.0017453292384743,0.0,0.0017453292384743,-0.0686465501785278,-9.208444595336914,0.3236194550991058
5.359965085983276,-0.0034906584769487,0.0,-0.0017453292384743,-0.0686465501785278,-9.208444595336914,0.3432327508926391
5.364968776702881,-0.0017453292384743,0.0034906584769487,0.0,-0.0882598459720611,-9.208444595336914,0.3236194550991058
5.369972467422485,-0.0052359877154231,0.0034906584769487,0.0,-0.0882598459720611,-9.208444595336914,0.3432327508926391
5.374977111816406,-0.0034906584769487,-0.0017453292384743,0.0,-0.107873149216175,-9.188830375671388,0.3432327508926391
5.379980802536011,0.0,-0.0017453292384743,0.0,-0.107873149216175,-9.208444595336914,0.3432327508926391
5.384984254837036,0.0,0.0017453292384743,0.0,-0.0882598459720611,-9.169217109680176,0.3628460466861725
5.389988899230957,-0.0017453292384743,0.0017453292384743,0.0017453292384743,-0.0882598459720611,-9.208444595336914,0.3040061295032501
5.3949925899505615,-0.0034906584769487,0.0,0.0,-0.0686465501785278,-9.188830375671388,0.3432327508926391
5.399996280670166,-0.0052359877154231,0.0,0.0017453292384743,-0.0882598459720611,-9.169217109680176,0.3236194550991058
5.405000686645508,0.0,-0.0017453292384743,0.0,-0.107873149216175,-9.188830375671388,0.3628460466861725
5.410004615783691,-0.0052359877154231,0.0,0.0,-0.107873149216175,-9.188830375671388,0.3236194550991058
5.415008306503296,-0.0052359877154231,0.0,0.0,-0.0882598459720611,-9.188830375671388,0.3824593424797058
5.4200119972229,-0.0017453292384743,0.0,0.0034906584769487,-0.0882598459720611,-9.208444595336914,0.3236194550991058
5.4250168800354,-0.0034906584769487,0.0,0.0034906584769487,-0.0882598459720611,-9.188830375671388,0.3432327508926391
5.430020093917847,-0.0034906584769487,0.0,0.0,-0.0882598459720611,-9.208444595336914,0.3236194550991058
5.435023546218872,-0.0017453292384743,-0.0017453292384743,0.0017453292384743,-0.0882598459720611,-9.208444595336914,0.3040061295032501
5.440028190612793,-0.0069813169538974,0.0017453292384743,0.0,-0.0882598459720611,-9.208444595336914,0.3236194550991058
5.4450318813323975,-0.0069813169538974,0.0,0.0017453292384743,-0.0882598459720611,-9.208444595336914,0.3432327508926391
5.450035572052002,0.0,0.0052359877154231,0.0,-0.127486452460289,-9.188830375671388,0.3040061295032501
5.455039024353027,-0.0017453292384743,0.0034906584769487,-0.0017453292384743,-0.0882598459720611,-9.169217109680176,0.3432327508926391
5.460043668746948,-0.0052359877154231,0.0,0.0017453292384743,-0.107873149216175,-9.169217109680176,0.3236194550991058
5.465047359466553,-0.0034906584769487,0.0052359877154231,0.0,-0.107873149216175,-9.208444595336914,0.3628460466861725
5.470051288604736,0.0,0.0,0.0017453292384743,-0.0686465501785278,-9.208444595336914,0.3236194550991058
5.475054502487183,0.0,0.0,0.0,-0.0686465501785278,-9.208444595336914,0.3236194550991058
5.4800591468811035,-0.0052359877154231,0.0017453292384743,0.0,-0.0882598459720611,-9.188830375671388,0.3040061295032501
5.485062837600708,-0.0017453292384743,0.0,-0.0017453292384743,-0.0882598459720611,-9.208444595336914,0.3040061295032501
5.490066289901733,-0.0052359877154231,0.0,0.0,-0.107873149216175,-9.188830375671388,0.3432327508926391
5.495070695877075,-0.0052359877154231,0.0017453292384743,-0.0034906584769487,-0.0686465501785278,-9.188830375671388,0.3432327508926391
5.50007438659668,-0.0017453292384743,0.0,0.0052359877154231,-0.0686465501785278,-9.208444595336914,0.3432327508926391
5.505078077316284,-0.0052359877154231,0.0052359877154231,0.0,-0.107873149216175,-9.188830375671388,0.3236194550991058
5.51008152961731,-0.0017453292384743,0.0017453292384743,0.0,-0.0882598459720611,-9.188830375671388,0.3628460466861725
5.5150861740112305,0.0,0.0017453292384743,0.0,-0.0882598459720611,-9.188830375671388,0.3628460466861725
5.520089626312256,0.0,0.0,0.0,-0.0882598459720611,-9.208444595336914,0.3236194550991058
5.525093078613281,-0.0069813169538974,0.0,0.0017453292384743,-0.107873149216175,-9.208444595336914,0.3236194550991058
5.530097007751465,-0.0034906584769487,0.0,-0.0017453292384743,-0.107873149216175,-9.188830375671388,0.3236194550991058
5.5351011753082275,-0.0017453292384743,0.0,0.0,-0.0882598459720611,-9.188830375671388,0.3824593424797058
5.540104866027832,-0.0052359877154231,0.0034906584769487,0.0017453292384743,-0.0882598459720611,-9.169217109680176,0.3236194550991058
5.545109272003174,-0.0017453292384743,0.0,0.0,-0.0882598459720611,-9.188830375671388,0.3236194550991058
5.550112962722778,0.0,0.0,0.0017453292384743,-0.127486452460289,-9.188830375671388,0.3236194550991058
5.555116415023804,-0.0069813169538974,0.0,0.0,-0.127486452460289,-9.188830375671388,0.3236194550991058
5.560120105743408,-0.0052359877154231,-0.0017453292384743,0.0,-0.107873149216175,-9.169217109680176,0.3628460466861725
5.565124273300171,-0.0017453292384743,0.0,0.0,-0.0882598459720611,-9.188830375671388,0.3432327508926391
5.5701282024383545,-0.0034906584769487,-0.0052359877154231,0.0,-0.0882598459720611,-9.208444595336914,0.3040061295032501
5.57513165473938,-0.0087266461923718,0.0,0.0,-0.0882598459720611,-9.188830375671388,0.3236194550991058
5.580136299133301,-0.0034906584769487,0.0,-0.0034906584769487,-0.0882598459720611,-9.208444595336914,0.3432327508926391
5.585139513015747,0.0,0.0052359877154231,0.0,-0.107873149216175,-9.208444595336914,0.3040061295032501
5.5901429653167725,-0.0034906584769487,0.0,0.0,-0.0882598459720611,-9.208444595336914,0.3628460466861725
5.595147609710693,-0.0017453292384743,0.0034906584769487,0.0,-0.0882598459720611,-9.188830375671388,0.3432327508926391
5.600151300430298,-0.0034906584769487,0.0052359877154231,0.0017453292384743,-0.107873149216175,-9.188830375671388,0.3236194550991058
5.605154752731323,-0.0017453292384743,0.0069813169538974,0.0,-0.107873149216175,-9.228057861328123,0.3628460466861725
5.610158205032349,-0.0017453292384743,0.0017453292384743,0.0,-0.0882598459720611,-9.208444595336914,0.3432327508926391
5.61516261100769,-0.0034906584769487,0.0017453292384743,0.0,-0.0882598459720611,-9.188830375671388,0.3628460466861725
5.620166301727295,0.0,0.0034906584769487,0.0,-0.107873149216175,-9.188830375671388,0.3432327508926391
5.62516975402832,-0.0052359877154231,0.0017453292384743,0.0,-0.0882598459720611,-9.188830375671388,0.3040061295032501
5.630174160003662,0.0,-0.0017453292384743,0.0,-0.107873149216175,-9.208444595336914,0.3628460466861725
5.635177373886108,-0.0034906584769487,0.0017453292384743,0.0017453292384743,-0.107873149216175,-9.188830375671388,0.3236194550991058
5.640181303024292,0.0,0.0,0.0,-0.0882598459720611,-9.188830375671388,0.3432327508926391
5.645184278488159,0.0,0.0017453292384743,0.0,-0.0686465501785278,-9.188830375671388,0.3432327508926391
5.650188684463501,-0.0052359877154231,0.0,0.0034906584769487,-0.0882598459720611,-9.208444595336914,0.3236194550991058
5.6551923751831055,-0.0017453292384743,0.0,0.0017453292384743,-0.0882598459720611,-9.228057861328123,0.3432327508926391
5.66019606590271,-0.0017453292384743,0.0,0.0,-0.0882598459720611,-9.208444595336914,0.3236194550991058
5.665199518203735,-0.0052359877154231,0.0017453292384743,0.0017453292384743,-0.0882598459720611,-9.169217109680176,0.3236194550991058
5.670203924179077,-0.0017453292384743,0.0034906584769487,-0.0017453292384743,-0.0686465501785278,-9.188830375671388,0.3432327508926391
5.675207138061523,-0.0034906584769487,0.0017453292384743,0.0,-0.0882598459720611,-9.208444595336914,0.3628460466861725
5.680210590362549,-0.0034906584769487,0.0,0.0,-0.107873149216175,-9.208444595336914,0.3432327508926391
5.685214996337891,0.0,0.0,0.0,-0.107873149216175,-9.188830375671388,0.3040061295032501
5.690218687057495,-0.0034906584769487,0.0,0.0017453292384743,-0.107873149216175,-9.188830375671388,0.3432327508926391
5.6952221393585205,0.0017453292384743,0.0017453292384743,-0.0052359877154231,-0.0882598459720611,-9.208444595336914,0.3236194550991058
5.700225591659546,-0.0017453292384743,0.0034906584769487,0.0,-0.107873149216175,-9.247671127319336,0.3432327508926391
5.705229997634888,-0.0017453292384743,0.0,0.0,-0.0686465501785278,-9.208444595336914,0.3040061295032501
5.710233688354492,-0.0034906584769487,0.0,0.0052359877154231,-0.127486452460289,-9.228057861328123,0.3432327508926391
5.7152369022369385,-0.0034906584769487,0.0,0.0017453292384743,-0.0882598459720611,-9.188830375671388,0.3432327508926391
5.720241069793701,-0.0017453292384743,0.0017453292384743,0.0017453292384743,-0.0882598459720611,-9.228057861328123,0.3628460466861725
5.7252442836761475,-0.0034906584769487,0.0,0.0,-0.127486452460289,-9.208444595336914,0.3236194550991058
5.730247974395752,-0.0017453292384743,0.0017453292384743,0.0,-0.107873149216175,-9.188830375671388,0.3628460466861725
5.735252380371094,-0.0017453292384743,0.0,0.0,-0.0686465501785278,-9.188830375671388,0.3432327508926391
5.740255832672119,-0.0017453292384743,0.0,0.0,-0.0686465501785278,-9.228057861328123,0.3432327508926391
5.7452592849731445,-0.0017453292384743,-0.0034906584769487,0.0017453292384743,-0.127486452460289,-9.208444595336914,0.3040061295032501
5.75026273727417,0.0,0.0052359877154231,-0.0017453292384743,-0.107873149216175,-9.188830375671388,0.3236194550991058
5.755267143249512,-0.0069813169538974,0.0,0.0017453292384743,-0.0882598459720611,-9.247671127319336,0.3432327508926391
5.760270595550537,-0.0017453292384743,-0.0017453292384743,0.0017453292384743,-0.107873149216175,-9.228057861328123,0.3432327508926391
5.765273809432983,-0.0017453292384743,0.0,0.0,-0.107873149216175,-9.169217109680176,0.3236194550991058
5.770278215408325,0.0,0.0,0.0,-0.127486452460289,-9.208444595336914,0.3432327508926391
5.7752814292907715,-0.0069813169538974,0.0034906584769487,0.0034906584769487,-0.107873149216175,-9.228057861328123,0.3236194550991058
5.780284881591797,-0.0052359877154231,-0.0017453292384743,0.0017453292384743,-0.107873149216175,-9.228057861328123,0.3236194550991058
5.785289287567139,-0.0052359877154231,-0.0034906584769487,0.0,-0.107873149216175,-9.228057861328123,0.3236194550991058
5.790292739868164,-0.0052359877154231,0.0034906584769487,0.0017453292384743,-0.0882598459720611,-9.188830375671388,0.3432327508926391
5.7952961921691895,0.0,0.0017453292384743,0.0,-0.107873149216175,-9.208444595336914,0.3236194550991058
5.800299644470215,-0.0034906584769487,0.0052359877154231,0.0017453292384743,-0.107873149216175,-9.169217109680176,0.3432327508926391
5.805303573608398,-0.0052359877154231,0.0,0.0,-0.127486452460289,-9.208444595336914,0.3040061295032501
5.810307025909424,-0.0034906584769487,0.0017453292384743,0.0,-0.107873149216175,-9.208444595336914,0.3432327508926391
5.815310478210449,-0.0034906584769487,0.0,0.0017453292384743,-0.0882598459720611,-9.228057861328123,0.3432327508926391
5.820313930511475,0.0,0.0034906584769487,-0.0034906584769487,-0.107873149216175,-9.188830375671388,0.3236194550991058
5.825318098068237,-0.0017453292384743,0.0,0.0,-0.107873149216175,-9.208444595336914,0.3432327508926391
5.830321550369263,-0.0034906584769487,0.0,0.0052359877154231,-0.0882598459720611,-9.188830375671388,0.3432327508926391
5.835325002670288,0.0,-0.0017453292384743,0.0,-0.0882598459720611,-9.188830375671388,0.3040061295032501
5.84032940864563,-0.0052359877154231,-0.0017453292384743,0.0034906584769487,-0.1470997482538223,-9.208444595336914,0.3432327508926391
5.845332384109497,-0.0069813169538974,0.0,0.0,-0.107873149216175,-9.169217109680176,0.3432327508926391
5.850336074829102,0.0,0.0017453292384743,0.0052359877154231,-0.1470997482538223,-9.188830375671388,0.3236194550991058
5.855340242385864,0.0,0.0,0.0,-0.107873149216175,-9.188830375671388,0.3040061295032501
5.86034369468689,-0.0034906584769487,-0.0017453292384743,0.0,-0.0882598459720611,-9.208444595336914,0.3432327508926391
5.865346670150757,-0.0017453292384743,0.0,0.0017453292384743,-0.107873149216175,-9.169217109680176,0.3236194550991058
5.870351076126099,0.0,0.0,0.0,-0.107873149216175,-9.228057861328123,0.3236194550991058
5.875354290008545,-0.0052359877154231,0.0034906584769487,0.0,-0.127486452460289,-9.208444595336914,0.3040061295032501
5.880357980728149,0.0,0.0,0.0034906584769487,-0.0686465501785278,-9.208444595336914,0.3432327508926391
5.885360956192017,0.0,0.0,0.0,-0.107873149216175,-9.247671127319336,0.3236194550991058
5.890365362167358,0.0,0.0017453292384743,0.0034906584769487,-0.0882598459720611,-9.188830375671388,0.3236194550991058
5.895368576049805,-0.0034906584769487,-0.0017453292384743,0.0,-0.107873149216175,-9.208444595336914,0.3236194550991058
5.90037202835083,-0.0034906584769487,-0.0052359877154231,0.0,-0.0882598459720611,-9.208444595336914,0.3040061295032501
5.905375242233276,-0.0034906584769487,0.0,0.0,-0.107873149216175,-9.228057861328123,0.3432327508926391
5.910379648208618,-0.0052359877154231,0.0087266461923718,0.0034906584769487,-0.0882598459720611,-9.208444595336914,0.3824593424797058
5.9153828620910645,-0.0034906584769487,-0.0017453292384743,0.0052359877154231,-0.107873149216175,-9.169217109680176,0.3236194550991058
5.92038631439209,0.0,0.0017453292384743,0.0017453292384743,-0.0882598459720611,-9.208444595336914,0.3628460466861725
5.925390243530273,-0.0052359877154231,0.0,0.0,-0.0882598459720611,-9.208444595336914,0.3432327508926391
5.930393695831299,-0.0017453292384743,0.0034906584769487,0.0034906584769487,-0.0686465501785278,-9.228057861328123,0.3236194550991058
5.935396671295166,-0.0017453292384743,-0.0017453292384743,0.0,-0.107873149216175,-9.228057861328123,0.2843928337097168
5.940401077270508,0.0,0.0,0.0,-0.0686465501785278,-9.188830375671388,0.3236194550991058
5.945404767990112,-0.0034906584769487,0.0034906584769487,0.0,-0.107873149216175,-9.208444595336914,0.3236194550991058
5.9504234790802,0.0,0.0,0.0,-0.107873149216175,-9.228057861328123,0.3432327508926391
5.955442428588867,-0.0017453292384743,0.0017453292384743,0.0,-0.107873149216175,-9.247671127319336,0.3432327508926391
5.960462331771851,0.0,0.0,0.0,-0.0882598459720611,-9.208444595336914,0.3432327508926391
5.965481519699097,-0.0034906584769487,0.0052359877154231,0.0,-0.0882598459720611,-9.208444595336914,0.3236194550991058
5.970500230789185,-0.0052359877154231,-0.0017453292384743,0.0,-0.0882598459720611,-9.208444595336914,0.3432327508926391
5.975520133972168,-0.0034906584769487,-0.0017453292384743,0.0,-0.0686465501785278,-9.208444595336914,0.3236194550991058
5.980539083480835,0.0,0.0034906584769487,0.0,-0.107873149216175,-9.169217109680176,0.3236194550991058
5.985558271408081,-0.0017453292384743,-0.0017453292384743,0.0,-0.0882598459720611,-9.208444595336914,0.3432327508926391
5.990577697753906,-0.0052359877154231,0.0017453292384743,0.0,-0.0882598459720611,-9.188830375671388,0.3236194550991058
5.99559760093689,0.0,0.0034906584769487,0.0,-0.0882598459720611,-9.208444595336914,0.3236194550991058
