timestamp,angular_velocity.x,angular_velocity.y,angular_velocity.z,linear_acceleration.x,linear_acceleration.y,linear_acceleration.z
0.4622807502746582,0.0012941975146532,-0.000300875864923,-0.0003117946907877,-0.044458620250225,0.0214674714952719,9.786653518676758
0.4662656784057617,1.9724015146493912e-05,-0.0018924348987638,-0.000210472382605,-0.02695257589221,0.0335031896829617,9.827509880065918
0.47025489807128906,-0.000835534883663,-0.0010377462022006,0.0005327900871634,-0.026472819969058,0.0258479639887821,9.822272300720217
0.47826147079467773,0.0008640163578093,-0.0019932761788368,0.0018189121037721,-0.0196007154881954,0.0213972125202429,9.781970977783203
0.48627376556396484,-0.0004107030108571,0.0004491969011723,0.0003114230930805,-0.0379975587129592,0.0322143696248543,9.727764129638672
0.49025774002075195,-7.981434464454651e-05,-0.0007134489715099,-0.0010692980140447,-0.0319982729852199,0.0318541191518318,9.7600736618042
0.49825549125671387,0.0028988062404096,-0.0021094037219882,-0.0016842698678374,-0.0278071984648704,0.0300800800323498,9.79852294921875
0.5022826194763184,0.0010941014625132,-0.0001967540010809,-0.0028679650276899,-0.041214432567358,0.035365328192712,9.804159164428713
0.5062887668609619,-7.849745452404022e-05,0.0022526639513671,-0.0024559232406318,-0.0350506827235221,0.0353910289704811,9.818909645080566
0.514275074005127,0.0005534803494811,0.0019430541433393,-0.0001102359965443,-0.0207419674843549,0.0161504819989216,9.81143283843994
0.5182592868804932,-0.0016872666310518,0.0026857373304665,0.0004101982340216,-0.0096619995310902,0.0281746834516537,9.80384922027588
0.5222971439361572,0.0002291994169354,0.0014090738259255,0.0005282657220959,-0.0248666163533926,0.0256928596645605,9.778597831726074
0.5262610912322998,-0.0009365659207105,0.0004440392367541,-0.000965520273894,-0.0424305647611618,0.017478931695224,9.756710052490234
0.5342581272125244,0.0025847740471363,-0.0014733499847352,-0.0017969440668821,-0.0454712249338626,0.0252780821174395,9.80319881439209
0.5423240661621094,2.804212272167205e-05,0.0005543446168303,-0.0004248386248946,-0.0322329364717006,0.0349355041980755,9.811209678649902
0.5470640659332275,0.0007225084118545,0.0026893368922173,-0.0004842788912355,-0.0458356328308582,0.0398204885423195,9.783838272094728
0.5550711154937744,-0.0001858016476035,-0.0012397225946187,0.0006317142397165,-0.0296096261590719,0.0333268716931355,9.778613090515137
0.5630671977996826,-0.000517540378496,-0.0012540388852357,0.0004259245470166,-0.0257545225322246,0.0256673358380806,9.765775680541992
0.5671172142028809,-0.0013782014138996,-7.477914914488773e-05,0.0015893429517745,-0.0210215728729963,0.0247868299484264,9.772448539733888
0.571068286895752,-0.0004017031751573,-0.0007204967550933,0.0008536642417311,-0.0225315317511558,0.0266581811010849,9.79725742340088
0.5750551223754883,0.0026699309237301,0.0002325652167201,-0.0010387715883553,-0.0379534400999546,0.0196663103997719,9.833585739135742
0.5790622234344482,0.0034255790524184,0.0017226748168468,-0.0011604689061641,-0.0523092895746231,0.0287438817322266,9.825986862182615
0.5830690860748291,-0.0004080708604305,0.0009894701652228,-0.0003258045762777,-0.0442314930260181,0.0263815820217144,9.839305877685549
0.5870771408081055,0.0003423378802835,-0.0007281051948666,-0.001055683940649,-0.0484760254621505,0.0359238758683216,9.831232070922852
0.5910651683807373,-0.0003985080402344,0.0010844459757208,-0.0019257413223385,-0.050334345549345,0.0315729081630718,9.812688827514648
0.5951261520385742,-0.0011466960422694,-0.0002917917445302,0.0002106921747326,-0.0498157441616058,0.031487360596658,9.796104431152344
0.599053144454956,0.0007683909498155,0.0004432862624526,-0.0002092663198709,-0.0554855689406394,0.0338772647082817,9.791702270507812
0.60306715965271,-0.0007332290988415,-0.0025287275202572,0.0006496114656329,-0.0378532744944095,0.029575426131488,9.793253898620604
0.6078810691833496,0.0008116080425679,-0.0014829444698989,0.0007711900398135,-0.037619262933731,0.0287975985556852,9.823884963989258
0.6119163036346436,-0.0007392179686576,-0.000921634491533,0.0015966445207595,-0.0250628106296062,0.0291308239102375,9.821748733520508
0.6198570728302002,0.000129522755742,0.0005462081171572,-0.0013852855190634,-0.0310062728822231,0.0194210279732954,9.764357566833496
0.6238784790039062,0.0003391010686755,0.0006676306948065,0.001386129297316,-0.0186854787170887,0.0304244421422493,9.769521713256836
0.6319043636322021,0.0014050737954676,0.0011766422539949,-0.0018217368051409,-0.0354586318135261,0.0190726779401314,9.77903938293457
0.6358683109283447,0.0005540768615901,-0.0005163955502212,-0.0019042207859456,-0.0424853153526783,0.0309230200946343,9.767602920532228
0.6438663005828857,0.0007687374018132,0.0001323772594332,-0.0010536946356296,-0.0182234961539506,0.0166977848857653,9.79240894317627
0.6486523151397705,-0.0013011144474148,0.0006242007948458,-0.0017209313809871,-0.0247978381812572,0.0011999011039745,9.809240341186523
0.6534833908081055,0.0001204791478812,0.0008962983265519,-0.0001314925029873,-0.0395000614225864,0.0054769590497028,9.827075004577637
0.6574783325195312,0.0002309610135853,-0.0001950403675436,0.0006520301103591,-0.051208209246397,0.0070518516004097,9.794164657592772
0.6654744148254395,0.0016252980567514,0.0003314563073217,-0.0013683685101568,-0.0492748543620109,0.020903190597893,9.786009788513184
0.6734733581542969,0.0001245983876287,0.0003254213370382,-0.0012661223299801,-0.0299413464963436,0.0259943548589956,9.743736267089844
0.6814894676208496,0.0006587910465896,-0.0009523807093501,-0.0011635380797088,-0.0277828946709632,0.0128434132784617,9.79094123840332
0.6894834041595459,0.003003439400345,-0.0020131263881921,-0.0009262971580028,-0.0436705388128757,0.0109642744064343,9.82072925567627
0.6934823989868164,0.0011945003643631,-0.0031750360503792,-0.0007349466904997,-0.0293279103934764,0.0281819477677357,9.82355499267578
0.697472333908081,0.0005409414879977,-0.0010420745238661,0.0023578470572829,-0.0129957860335707,0.0453126281499874,9.792302131652832
0.7014603614807129,0.0016210209578275,0.0002289093099534,0.0008730525150895,0.0039026201702654,0.0323401242494595,9.769071578979492
0.7095963954925537,-0.0004104112740606,-0.0004057334735989,0.0006526373326778,-0.0424514040350914,0.0255513284355413,9.75228500366211
0.7134675979614258,-0.0010365121997892,0.0011844900436699,-0.0007274160161614,-0.0310766864567995,0.0385578759014618,9.779122352600098
0.7177674770355225,0.0001423307694494,-0.0004259007982909,-0.0017861248925328,-0.0254355799406766,0.0252201482653629,9.80540943145752
0.7214596271514893,0.0008687865920364,0.0013020201586186,0.0015238281339406,-0.0297201015055179,0.0209043901413691,9.806431770324709
0.7254595756530762,-0.0006142826750874,0.0011740396730601,-0.0005185324698686,-0.0321692936122417,0.0295658335089695,9.818708419799805
0.7294642925262451,-0.001465787179768,-0.0003091339021921,0.0003351280465722,-0.034503947943449,0.0166315194219362,9.804489135742188
0.7335186004638672,0.0011963308788836,-0.0007467921823263,-0.0009295498020946,-0.0387483201920986,0.0103287287056458,9.793599128723145
0.73746657371521,0.0014200028963387,0.000536227133125,-0.0027349079027771,-0.0245333109050989,0.0198995918035519,9.79503059387207
0.7414686679840088,-0.0008183803874999,-0.0003178608603775,-0.0016875155270099,-0.0205297768115997,0.0332915633916866,9.783613204956056
0.7494668960571289,0.000876716338098,-0.0002086432650685,-0.000404346268624,-0.021043037995696,0.0141570754349243,9.783196449279783
0.7534565925598145,4.530884325504303e-06,0.0002533262595534,0.000725514255464,-0.0406491830945014,0.0339207276701939,9.794809341430664
0.7574586868286133,0.0014868425205349,0.0005774418823421,0.0021227868273854,-0.0460049696266651,0.0345102176070225,9.803990364074709
0.761582612991333,0.0006523430347442,0.0002429471351206,-0.0001076431944966,-0.0474113821983337,0.0253477878868591,9.801959037780762
0.7654926776885986,-0.0009428588673472,0.0007752398960292,-0.0004375344142317,-0.048884093761444,0.0258476473391068,9.81052303314209
0.7694575786590576,0.0005498961545526,0.0006594541482627,-0.0014933361671864,-0.0392782166600227,0.0177099332213413,9.805818557739258
0.7774615287780762,0.0011888449080288,-0.0002952422946691,-0.0016928925178945,-0.0300876852124929,0.0180564057081949,9.770234107971191
0.7814655303955078,-0.0016838612500578,0.0005562254227697,-0.0016090129502117,-0.0310312658548355,0.0233194138854754,9.76927089691162
0.7894575595855713,0.0016125296242535,-0.0023153461515903,-0.0009464295580983,-0.0497499294579029,0.0190702155232441,9.78724765777588
0.7934575080871582,1.4633871614933014e-05,-0.0017863176763057,-0.0007402417249977,-0.040296770632267,0.036399867385627,9.815693855285645
0.797459602355957,0.0001139314845204,-8.130678907036779e-05,0.000211926177144,-0.0355184897780418,0.0335173942148697,9.808180809020996
0.8014702796936035,-0.0012602300848811,0.000770648010075,-0.0009692437015473,-0.0277899615466594,0.0186184011399757,9.79352855682373
0.809485912322998,-8.563557639718056e-05,0.0013063144870102,-0.0017023058608174,-0.0308554731309413,0.0217905156314384,9.740257263183594
0.813586950302124,0.0008563674055039,0.0001188814640045,-0.0017189602367579,-0.0528478547930717,0.0214124303311121,9.78662395477295
0.8214619159698486,-0.0010615701321512,0.0005526570603251,0.0006230287253856,-0.0440582260489463,0.0291798282414686,9.799586296081545
0.825476884841919,-0.0014699876774102,0.0010880636982619,-0.0003202967345714,-0.0407596975564956,0.0301295295357716,9.803863525390623
0.8294868469238281,0.0010764077305793,0.000137660652399,0.0011741323396563,-0.0521393381059169,0.0224426705390226,9.79150676727295
0.8334658145904541,0.0002204370684921,-0.0009194081649184,-0.0006230198778212,-0.0507622472941875,0.0325726196169865,9.795190811157228
0.8374888896942139,0.0027818051166832,-0.000721201300621,-0.0017940583638846,-0.0603723749518394,0.02007487230003,9.80903148651123
0.8414738178253174,-9.739352390170096e-05,0.0001359097659587,-0.0003157360479235,-0.0544605888426303,0.0099506974220287,9.780561447143556
0.8454678058624268,0.000862615648657,-0.002733857370913,-0.0005223946645855,-0.0478899776935577,0.0018747039139282,9.795376777648926
0.8494579792022705,0.0008626142516732,-0.0019981977529823,0.0003235703334212,-0.0444604605436325,0.0046774297952663,9.777921676635742
0.8535668849945068,-0.0005360664799809,-0.0004009739495813,0.000850623473525,-0.035335972905159,-0.0014891214668738,9.77067756652832
0.8574697971343994,0.0022448250092566,0.002051614690572,0.000641606748104,-0.0401447862386703,0.0233343522995722,9.77396297454834
0.8614628314971924,0.0016131014563143,0.001086404081434,-0.00170045113191,-0.0358951650559902,0.0262681469321262,9.792014122009276
0.8694989681243896,0.0011807586997747,-0.0010344292968511,0.0005412362515926,-0.037939004600048,0.0196747314184916,9.823851585388184
0.8734838962554932,0.0011752098798751,-0.0003005675971508,-0.0008420865051448,-0.0283779017627239,0.0368823781609547,9.823418617248535
0.8774688243865967,-0.0009276368655264,-0.0008248668164014,-0.001277835574001,-0.0384471639990806,0.0350842177867901,9.84091567993164
0.885469913482666,0.0002227211371064,2.609565854072573e-05,0.0002135541290044,-0.02106574177742,0.0042041353881371,9.781728744506836
0.8894588947296143,0.001084357034415,0.0022521251812577,-0.0021272101439535,-0.0209190249443054,0.0031710714101803,9.760416030883787
0.89357590675354,0.0010970998555421,0.0012000948190689,-0.0019325618632137,-0.0386760756373405,0.0050908327102673,9.759716987609863
0.9014639854431152,0.0007464671507477,0.0015224730595946,0.0019130557775497,-0.0349822007119655,0.0057078897953045,9.799696922302246
0.9094858169555664,-0.0007374491542577,-0.0003992272540926,0.0001044562086462,-0.0494748838245868,0.0130320582538855,9.837129592895508
0.9135231971740723,-0.0002109031192958,-0.0001828405074775,0.0010731713846325,-0.0408537052571773,0.0119543243199598,9.81919002532959
0.9176151752471924,0.0024569439701735,0.0006713774055242,0.000970097258687,-0.0335544757544994,0.0282110944390308,9.801521301269531
0.925462007522583,0.0017222072929143,-0.0009384476579725,-0.0020099817775189,-0.0439742356538772,0.0233402308076632,9.779180526733398
0.9294700622558594,0.0001220894046127,0.0014001377858221,-0.0012823464348912,-0.0467901341617107,0.0156654193997395,9.772557258605955
0.9374752044677734,0.0021448545157909,-0.000510455109179,-0.0012640161439776,-0.0407437197864055,0.0133863110095274,9.806292533874512
0.9414820671081543,0.0016165585257112,-0.0004094084724783,-0.0022233384661376,-0.0502507761120796,0.0229177121073019,9.798154830932615
0.9454910755157471,0.0021402738057076,-0.0002912478521466,-0.0002057831734418,-0.0540988072752952,0.0210350658744585,9.798617362976074
0.9495840072631836,-0.0002087610773742,-0.0015636393800377,0.0008603790774941,-0.0545796230435371,0.0190612766891729,9.799097061157228
0.9534580707550049,-0.0002120127901434,-0.0013638101518154,-0.0006256951019167,-0.0306802950799465,0.0296522229909908,9.799601554870604
0.9574592113494873,0.001294479239732,0.0002331533469259,-0.0014827447012066,-0.0292709600180387,0.0277438387274754,9.80771541595459
0.9615790843963623,-0.0004178159870207,0.000555801205337,0.0003122705966234,-0.0262809321284294,0.0290532559156429,9.77122688293457
0.9654800891876221,-0.0006252354942262,-0.0002938322722911,-0.0007454864680767,-0.0300513245165348,0.0290365722030413,9.766411781311035
0.969480037689209,0.0003324677236378,0.0005552573129534,-0.0007432335987687,-0.0153097789734601,0.0305278971791279,9.782577514648438
0.9734580516815186,0.0005575362592935,-0.0004170178435742,-0.0021322579123079,-0.0295455753803253,0.0454180836677563,9.773804664611816
0.977459192276001,-0.001147334696725,0.0007606949657201,-0.0028778482228517,-0.0378563404083251,0.0301196463406097,9.80292510986328
0.9814741611480713,-0.0007299189455807,0.002045648638159,-0.0006466265767812,-0.0293549243360757,0.038331199437381,9.825270652770996
0.9894592761993408,-0.0015912770759314,0.0003458075225353,0.00010855961591,-0.0416688360273838,0.0258232280612003,9.79868507385254
0.9934680461883545,-0.0002017756924033,-0.0029521887190639,0.0010782228782773,-0.0374148339033126,0.0353167727589619,9.798734664916992
0.9975521564483643,1.135561615228653e-05,-0.0013584732078015,7.901340723037886e-06,-0.0220404341816902,0.0348661653697502,9.792515754699709
1.0055291652679443,-0.0005199632141739,-0.0012525455094873,-0.000206776894629,-0.0395474396646022,0.0222751516848814,9.74880599975586
1.0094630718231201,0.000968967564404,-0.0010385229252278,-0.0002006599679589,-0.0396590568125247,0.0267015546560299,9.782495498657228
1.0136024951934814,0.0008594966493546,0.0003450978547334,-0.000634157564491,-0.0492421723902225,0.0281410757452261,9.7758150100708
1.0176033973693848,0.0019271364435553,0.0010945224203169,-0.0007335166446864,-0.0496878623962402,0.0094321668148052,9.778752326965332
1.021467685699463,0.0011843093670904,0.0007689879275858,0.0003253212198615,-0.0339418463408947,0.0195582900196325,9.78589153289795
1.0254733562469482,0.0016147377900779,-0.0007215575315058,-0.0015781852416694,-0.0397942140698432,0.0296996869146835,9.80996036529541
1.0294663906097412,-0.0015904197935014,-0.0006066118367016,0.0013824691995978,-0.0392225421965122,0.0444303415715706,9.78909969329834
1.0334663391113281,-0.0003303789999336,3.3060088753700555e-05,0.0024457378312945,-0.035216037184,0.0409384556114685,9.75743007659912
1.037468433380127,-0.0003147032111883,0.0021583759225904,0.0012769838795065,-0.0323319137096405,0.0409233383834373,9.742593765258787
1.0414702892303467,1.0366085916757584e-05,0.0023648580536246,-3.4812837839129484e-06,-0.0352902077138423,0.0318815633654606,9.759237289428713
1.0454883575439453,0.0002127885818481,0.000452212523669,-0.0005342443473637,-0.0382946319878101,0.0458387807011616,9.79101276397705
1.054253339767456,0.0017025233246386,0.000637758988887,-0.0020657060667872,-0.0347616784274578,0.0339593440294277,9.807827949523926
1.0582623481750488,0.0003333752974867,0.0011888383887708,-0.0013800179585814,-0.0217658691108226,0.0288269110023987,9.843833923339844
1.0622804164886475,0.0008719456382095,-0.0002044374123215,-0.0027511133812367,-0.0306683294475078,0.0177191440016043,9.80825424194336
1.0702602863311768,0.0002192915417253,0.0001321556046605,0.000856596045196,-0.0477059185504913,0.0414469651877892,9.761528968811035
1.0782594680786133,0.0008625527843832,0.0006617186591029,-0.0001001991331577,-0.0558090321719646,0.0256264545023453,9.75442123413086
1.0822882652282715,0.002143180463463,-0.0004114261828362,-0.0013620168901979,-0.0357098132371902,0.0270861312747013,9.753707885742188
1.0862534046173096,0.0005381167866289,-0.0021059555001556,0.0002291575074195,-0.0231016334146261,0.0296760760247719,9.819183349609377
1.090362310409546,0.0009613162837922,-0.0014604078605771,0.0018267948180437,-0.0323076210916042,0.0202336963266146,9.848098754882812
1.0942630767822266,-0.0016890070401132,-0.0007256111130118,-0.0004216325469315,-0.0380483753979206,0.0192655045539152,9.849516868591309
1.0982534885406494,-0.0012665032409131,-0.0005105016753077,-0.0005275239236652,-0.0313310921192169,0.0201868843287241,9.842897415161133
1.1023035049438477,-0.0022125148680061,-0.0016595013439655,0.000317208468914,-0.0240350700914859,0.0267920494079601,9.796425819396973
1.1063284873962402,8.960720151662827e-06,-0.0004032477736473,0.0013953447341918,-0.0362808592617511,0.0266251210123312,9.76767349243164
1.1102824211120605,0.0017177104018628,-0.0007242010906338,-0.0010494654998183,-0.0328567735850811,0.0165127180516731,9.75027847290039
1.1182665824890137,0.0010787574574351,0.0015097465366125,-0.0009534335695207,-0.042978461831808,0.0396061167120945,9.78008270263672
1.1222915649414062,0.0020281979814171,0.0006667892448604,0.001074687577784,-0.0402384214103221,0.0377944484353077,9.803827285766602
1.1262776851654053,0.0015069763176143,-0.0010445527732372,0.0004460429772734,-0.0217032767832279,0.0450151935219776,9.819005012512209
1.130279541015625,-0.0002032998017966,-0.000711865723133,0.0002297852188348,-0.0197716075927019,0.0368756875395786,9.820768356323242
1.1342604160308838,-9.614229202270508e-05,-0.0016796374693512,-0.0002003144472837,-0.0278613269329071,0.0229637604206812,9.813426971435549
1.1382684707641602,-0.0026420881040394,-0.002539740409702,-0.0023327800445258,-0.0348954163491725,0.0137425865978014,9.779260635375977
1.142282485961914,0.0003417911939322,-0.0019077179022133,-0.0011513130739331,-0.0305327754467725,0.0156198404729378,9.76598072052002
1.1462554931640625,0.0022528837434947,0.0008694408461451,-0.0014752252027392,-0.0357890576124191,0.0185020714998257,9.765475273132324
1.1502556800842285,0.0020340387709438,0.0016174004413187,-0.0004141838289797,-0.0405179783701896,0.0093829073011887,9.7621431350708
1.1582822799682617,0.0016057016327977,-0.0013544517569243,0.0020341360941529,-0.0526639446616172,0.0257622711360466,9.806529998779297
1.1622874736785889,0.0009692916646599,0.0003410172648727,0.0002308208495378,-0.0331510677933692,0.0268219560384762,9.832776069641112
1.1702635288238525,-0.0020107536111027,0.0006492580287158,0.0007487731054425,-0.0449176467955112,0.0333450697362434,9.782828330993652
1.1742725372314453,-0.0027495333924889,0.0016035395674407,-0.0001122634857892,-0.046832762658596,0.0237669590860617,9.779480934143066
1.17826247215271,-0.0004104578401893,-0.0022202893160283,0.0002413475885987,-0.0377045758068561,0.019901802763344,9.770052909851074
1.182288408279419,0.0012934589758515,0.0023567080497741,1.856312155723543e-05,-0.0400509908795356,0.0227302666753542,9.759138107299805
1.186272382736206,0.0013976292684674,0.0032000271603465,-0.0007231328636407,-0.0401548817753791,0.024202397093178,9.781447410583496
1.190265417098999,-0.0007232981733977,0.0018166084773838,-0.0020141443237662,-0.0474085733294487,0.0200133267790091,9.80374813079834
1.1982614994049072,0.0013998667709529,-0.001160089392215,-0.0008250614628195,-0.0494247525930404,0.0181990955024969,9.832229614257812
1.2030704021453857,0.0012558433227241,0.002319797873497,0.000156913883984,-0.0364071726799011,0.0355391129851353,9.81838321685791
1.2071914672851562,-0.0010494997259229,0.0013985848054289,0.0002215383574366,-0.0174004361033439,0.0330435447394859,9.829479217529297
1.2111001014709473,-0.0018958081491291,-0.0013713012449443,-0.0020140991546213,-0.0183473881334066,0.0166906826198113,9.810065269470217
1.2151951789855957,-0.0008251946419477,-0.0004159356467425,-0.0015722922980785,-0.0397733896970748,0.035853572189809,9.80030345916748
1.219184160232544,0.0010702051222324,0.00043819937855,-0.0005001239478588,-0.0353659689426422,0.0280662290751946,9.774373054504396
1.2270801067352295,0.0022498238831758,-0.0005173734389245,2.9589049518108432e-05,-0.0268891789019107,0.0262964405119431,9.812352180480955
1.2310640811920166,0.0015059518627822,-0.0015827310271561,-0.0015647769905626,-0.0254542771726846,0.0148315075784933,9.818580627441406
1.2390882968902588,0.000972369685769,-0.0002940972335636,0.0006632711738348,-0.0345427580177784,0.0076580457389366,9.81473159790039
1.2430660724639893,-0.0006312492769211,0.0016129738651216,0.0005433270707726,-0.0373391211032867,0.0290781240910303,9.793768882751465
1.247077226638794,-0.000731659354642,0.0021439525298774,-0.0006290846504271,-0.0410417802631855,0.039097409695388,9.768068313598633
1.2511191368103027,-0.0011648188810795,0.0001009134575724,-0.0006248052231967,-0.03196956589818,0.0198719017207634,9.766551971435549
1.2550551891326904,-0.0007159835658967,0.0002369675785303,-0.0014874842017889,-0.0236776750534772,0.0274914540350449,9.739753723144531
1.259068250656128,0.0025682589039206,-0.0002013086341321,-0.0009290832094848,-0.0196089912205934,0.0300215799361479,9.787652015686035
1.2630641460418701,0.0028812438249588,0.0011877254582941,0.0016267215833067,-0.0302174761891365,0.0239072423428309,9.817095756530762
1.267113208770752,0.000850090291351,0.0023617353290319,0.0005496479570865,-0.0484205596148967,0.0258901715278637,9.819884300231934
1.2710542678833008,0.0003397949039936,0.0018137330189347,-0.0003091553226113,-0.0379509627819061,0.0388199985027325,9.836538314819336
1.2750542163848877,0.0002293409779667,0.0012869164347648,-0.0007349243387579,-0.0339938588440418,0.0439556986093533,9.799007415771484
1.2790601253509521,0.0009663039818406,0.0019335453398525,0.001400327309966,-0.0244092568755149,0.029055777937175,9.787182807922363
1.2830681800842285,0.0015007057227194,-0.000298770610243,0.0016238493844866,-0.0310695711523294,0.0194544792175304,9.780601501464844
1.2870652675628662,-0.0002015987411141,-0.0001981896348297,0.0002358192577958,-0.0295038595795631,0.0308225452899944,9.75063705444336
1.2910680770874023,-0.0010438216850161,-0.0006246897391974,-0.0009414451196789,-0.0203460305929183,0.0283753648400318,9.729284286499023
1.2951021194458008,-0.0021150554530322,-0.0012691807933151,-0.0009437492117285,-0.0191737450659275,0.0380713231861603,9.777156829833984
1.2990550994873047,-0.0017995946109294,0.0011928179301321,0.0002275146543979,-0.0320407226681709,0.0305074770003569,9.790515899658203
1.3070762157440186,-0.0013607384171336,0.0017070905305445,-0.0011560269631445,-0.0444412715733051,0.0256490353494894,9.785593032836914
1.3150665760040283,-0.0017939298413693,0.0021337843500077,0.0004336908459663,-0.0272635947912931,0.0543402992188942,9.78371238708496
1.3191907405853271,-0.0009338269010186,0.0005336175672709,-0.001466869842261,-0.0181080233305692,0.0528747178614151,9.77133560180664
1.3238646984100342,-0.0004267860203981,-0.0001713414676487,0.0003489628434181,-0.0265409387648105,0.0336814224720013,9.752211570739746
1.3286786079406738,0.0001995270140469,0.0021326439455151,-0.0003733811900019,-0.041340809315443,0.0269516371190559,9.765212059020996
1.3326547145843506,0.000229884404689,0.0003291983157396,0.0003470731899142,-0.0288558155298233,0.0420620180666458,9.823580741882324
1.3366787433624268,0.0013945880346,-0.0005297288298606,-0.0001771105453372,-0.0245260372757911,0.0373092144727718,9.827404022216797
1.348658561706543,-0.0010518692433834,-0.0004147095605731,0.0009825183078646,-0.0263448301702737,0.0204403083771479,9.798023223876951
1.352691650390625,-0.0002949554473161,-0.0002002106048166,-0.000614755321294,-0.0243198424577713,0.0275388024747383,9.782360076904297
1.3566515445709229,0.0019437563605606,-0.0006316038779914,-0.0007087928242981,-0.0376803427934646,0.037059959024192,9.759435653686523
1.3607735633850098,0.0004449314437806,0.0012834030203521,-0.0005065076984465,-0.0414757020771503,0.0279593635350477,9.75759506225586
1.3687748908996582,-0.0010557216592133,0.0004375181160867,0.0019379593431949,-0.0396975204348564,-0.0030305646359908,9.792820930480955
1.3726534843444824,0.000441298354417,-0.0005243769846856,0.0011950777843594,-0.0469505339860916,0.0075923204422009,9.799884796142578
1.3766555786132812,0.0009702784009277,0.0012878025881946,0.0008783768862485,-0.0378624908626079,0.0190485790371906,9.809866905212402
1.3806602954864502,0.0005324194207787,-0.0004095281474292,0.002384003251791,-0.0412201806902885,0.0314022898674023,9.793692588806152
1.3886525630950928,0.0006606657989323,0.0019138427451252,-0.0018919194117188,-0.0396288111805915,0.0260916333645594,9.77277946472168
1.392662763595581,0.0001263357698917,0.0006410204805433,-0.0014645033515989,-0.0443170554935932,0.021244863048197,9.75191879272461
1.400653600692749,0.0027957316488027,-0.0001117591746151,-0.0027229478582739,-0.0462344139814376,0.0447266139090073,9.759883880615234
1.408665657043457,6.068963557481766e-06,-0.0007404629141092,0.0003446005284786,-0.0400648526847362,0.0285085476934921,9.768756866455078
1.4166576862335205,0.0007629226893186,-0.0010580020025372,-0.0004964461550116,-0.0445556230843067,0.0372379533946526,9.810269355773926
1.4246647357940674,-0.001790466485545,0.0003229533322155,0.0009808847680687,-0.0393872559070587,0.0511442124843609,9.827116012573242
1.428694725036621,-0.0014660048764199,-5.646143108606452e-06,-0.000927357468754,-0.0412024110555648,0.0352793708443653,9.81249713897705
1.43666672706604,0.0010705944150686,0.0008782483637332,-0.0017977277748286,-0.0397638604044914,0.0230259113013756,9.806316375732422
1.4406535625457764,-0.001156385987997,-0.0010353568941354,-0.0019114022143185,-0.0407642349600791,0.0291949491947901,9.809816360473633
1.4487836360931396,0.0017099734395742,-0.0003985813818871,-0.0008379835635423,-0.0281530320644378,0.0338764488697063,9.769906044006348
1.4528107643127441,0.0014893840998411,-0.0013477741740643,0.0004427349194884,-0.0171449407935142,0.0458350554108631,9.770429611206056
1.456784725189209,0.0032994197681546,-0.0014575207605957,0.0008755074813961,-0.0258574988692998,0.0310557167977106,9.789410591125488
1.460693597793579,0.0018093613907694,-0.0007137358188629,-0.0006275391206145,-0.0235161613672971,0.027777921408416,9.807957649230955
1.468653678894043,-0.0003114559222012,-0.000620397273451,-0.0009551318362355,-0.0333879441022872,0.0219008047133696,9.765558242797852
1.4726536273956299,-0.0010609757155179,-0.0011406186968088,0.0002165511250495,-0.0367039144039154,0.0314162597060215,9.757062911987305
1.480663537979126,-0.0001068087294697,-0.0010334784165024,0.0005406774580478,-0.0624635964632034,0.0342423915863049,9.743661880493164
1.4848206043243408,0.0010688202455639,-0.0017791092395782,-9.153876453638056e-05,-0.058761641383171,0.0352930612862122,9.772167205810549
1.4926636219024658,-0.0010655664373189,0.0016231467016041,-0.0007539582438766,-0.0388017743825912,-0.0023564249277102,9.813824653625488
1.4966607093811035,-0.0011706769000738,-0.0006009959615767,0.0010625422000885,-0.0406838469207286,0.0200270004570496,9.794116973876951
1.504652738571167,0.0014874744229018,0.0004530074074864,0.0001199366524815,-0.0024354723282158,0.0372829884290707,9.789984703063965
1.5087895393371582,-0.000314742559567,0.000138587784022,0.0002186456695199,-0.0089817307889461,0.0295122545212519,9.760022163391112
1.5127248764038086,0.0001090141013264,-0.0017780563794076,0.0002251612022519,-0.0305675882846117,0.0214340332895529,9.776596069335938
1.5206658840179443,0.0018080999143421,0.0012137349694967,0.000851166434586,-0.0412182547152042,0.0138256512582314,9.795527458190918
1.5246670246124268,0.0024459492415189,-0.0012458604760468,0.0009799422696232,-0.0378634482622146,0.0206012185662996,9.80599880218506
1.5326628684997559,-0.0001026564277708,0.000665359199047,-0.0002076774835586,-0.0450777225196361,0.0077134035527718,9.816949844360352
1.536674976348877,-0.0005325132515281,-0.0007133050821721,0.0005456544458866,-0.0303678065538406,0.0230716951191437,9.83500862121582
1.5446569919586182,-0.000631924951449,-0.0013623922131955,-0.0003087716177105,-0.0330014824867248,0.0315369702875626,9.7860746383667
1.552664041519165,0.0019246838055551,0.0005568698979914,0.0002408707514405,-0.0291728787124156,0.0248785223811876,9.802865982055664
1.556654691696167,-0.000100546516478,0.0008797021582722,-0.000526285264641,-0.045420829206705,0.02339024282992,9.785514831542969
1.5646560192108154,0.0008588680066168,0.0011946777813136,-0.0012689637951552,-0.0412894301116466,0.0230264868587267,9.823074340820312
1.5686709880828857,0.0002198838628828,0.0018268660642206,-0.0018100617453455,-0.0389559604227542,0.0020734146237385,9.834492683410645
1.5766561031341553,0.0020172633230686,0.0004604086279869,0.001931301318109,-0.0393345467746257,0.0172669719904673,9.815020561218262
1.5806829929351807,-0.0008549864869564,0.0013033770956099,0.0009589446708559,-0.0349330715835094,0.0315172709524643,9.791276931762695
1.584778070449829,-0.0004290922079235,0.0005680997855961,0.0009638741612434,-0.0373949036002159,0.0205740146338951,9.79600429534912
1.5926570892333984,3.984197974205017e-06,-0.0005060099065303,-0.0003077881410717,-0.0286623127758502,0.0320546068251145,9.783641815185549
1.5967292785644531,0.0019209953024983,0.0006624581292271,-0.0007301666773855,-0.0283563323318958,0.0182364359498036,9.818384170532228
1.6046559810638428,0.0018134121783077,-0.0009193206205964,-0.0010540625080466,-0.0326750874519348,0.0177613142877829,9.817989349365234
1.6087138652801514,0.0013839043676853,-0.0013560741208493,0.0004465850070118,-0.039191547781229,0.0257568359375011,9.783661842346191
1.6167020797729492,-0.0012764071580022,-0.002001660875976,-0.0002150945365428,-0.0312780700623989,0.0435548312962067,9.807429313659668
1.6207780838012695,-0.0009457757696509,-0.001143479719758,-0.0021208156831562,-0.0353680327534675,0.0314536318182957,9.786349296569824
1.6286718845367432,0.0014995895326137,0.0003397841937839,-0.0016868114471435,-0.0110017014667391,0.0233720988035214,9.783766746520996
1.6326661109924316,0.0011723572388291,0.0023730648681521,0.001722453162074,-0.0210406593978405,0.0296737141907227,9.791966438293455
1.6366760730743408,3.161374479532242e-06,-0.0003916374407708,-9.207893162965768e-05,-0.0320470929145813,0.0133858807384979,9.793611526489258
1.6407790184020996,-0.0012726881541311,-0.0006130798719823,-0.0002047941088676,-0.0398494005203247,0.0235099308192742,9.822104454040527
1.6447958946228027,-0.000209913123399,0.0004520313814282,0.0002210484817624,-0.044093832373619,0.0383158661425125,9.814448356628418
1.6486608982086182,0.0019199689850211,0.0018318714573979,-0.000199862755835,-0.0330862775444984,0.0157871600240481,9.805546760559082
1.6526730060577393,0.0010689655318856,0.0036488333716988,-0.0005230060778558,-0.0314873158931732,0.0136435534805071,9.781946182250977
1.6606578826904297,0.0010781418532133,0.0009628194384276,-0.0016967914998531,-0.0262817703187465,0.0320759005844605,9.784683227539062
1.6654911041259766,0.0011564688757061,0.000558387953788,-0.0011744080111384,-0.0250862576067447,0.015919601544739,9.779622077941896
1.66947603225708,0.0001135356724262,-0.0006144270300865,-0.0006252899765968,-0.0249276924878358,0.0157794989645493,9.80364990234375
1.6736140251159668,0.000743499957025,-0.0015739323571324,0.0009778756648302,-0.0323441661894321,0.0245260894298565,9.84921646118164
1.67746901512146,-0.0008512430358678,0.0016252589412033,0.0003231251612305,-0.0245218612253665,0.0220609325915587,9.817915916442873
1.6814699172973633,-0.0012713705655187,0.0025710626505315,0.0003229891881346,-0.0301908459514379,0.0167135093361151,9.801698684692385
1.6854629516601562,0.0012777163647115,0.0016352543607354,0.0009733503684401,-0.0302248205989599,0.0205518472939741,9.801761627197266
1.693464994430542,0.0012732669711112,0.0016210577450692,-9.595509618520756e-05,-0.0438625365495681,0.0170827209949505,9.761800765991213
1.6975181102752686,0.0006410623900592,0.0006585018709301,-0.0012714071199297,-0.0358579233288764,0.0171012803912174,9.777562141418455
1.701474666595459,0.0001100739464163,-0.0002998253330588,-0.0008383141830563,-0.0248359646648168,0.0267002005130064,9.77659797668457
1.7056009769439697,0.0005368213169276,0.0006664185784757,-0.0004180199466645,-0.0334563367068767,0.0234102662652742,9.79127025604248
1.709486961364746,-0.0002089757472276,-0.0011505987495183,-0.0007257713004946,-0.0349505096673965,0.0128773916512739,9.791775703430176
1.7134904861450195,0.0002107392065227,-0.0015690051950514,0.0008712392300367,-0.0198682248592376,0.0205814689397823,9.823384284973145
1.7175345420837402,0.0013856934383511,-0.0012525473721325,0.000129803083837,-0.0096688494086265,0.0272841975092899,9.809399604797363
1.721618413925171,0.0009649293497204,0.0009822859428822,-0.0008362429216504,-0.0085662174969911,0.0300291236490023,9.77566623687744
1.7254915237426758,0.0002087894827127,-0.0018872693181037,0.0014045666903257,-0.0143551640212535,0.0209712591022265,9.788030624389648
1.7294695377349854,0.0011660843156278,-0.0002915747463703,0.0009865304455161,-0.0147284297272562,0.0338496863842022,9.758609771728516
1.733475685119629,-0.0023379768244922,-0.0003025587648153,-0.0002098903059959,-0.031336985528469,0.0280544590204966,9.755955696105955
1.7414915561676025,-0.0001061335206031,-0.0017838892526924,0.0001262528821825,-0.0340330377221107,0.0253632646054041,9.8092622756958
1.7454776763916016,-0.0006298816297203,0.0009833131916821,-0.0006235777400434,-0.0383741669356823,0.0364377684891235,9.82634449005127
1.7496204376220703,-0.0010681811254471,0.0003472706303,0.00149817019701,-0.0432566776871681,0.0393549725413334,9.839141845703123
1.7574715614318848,0.0019153892062604,-0.0035929423756897,0.0004626614972949,-0.0550261475145816,0.0253098644316208,9.794977188110352
1.7614805698394775,-0.0005338895134627,-0.0025266935117542,0.0011966060847043,-0.0258631110191345,0.0339013636112225,9.790781021118164
1.7654764652252197,-0.0003091827966272,0.0005480083636939,-0.0015885466709733,-0.023887276649475,0.0315199494361889,9.785604476928713
1.769500494003296,-0.0004409470129758,-0.0007332293316721,0.0007766261696815,-0.0300268940627574,0.0146554615348589,9.758865356445312
1.7734622955322266,0.0005314270965754,0.0002308427356183,-0.0008210665546357,-0.0329325981438159,0.0113415885716688,9.772624015808104
1.7774643898010254,0.0004380601458251,0.0001175450161099,-0.0011459006927907,-0.022050354629755,0.0114034153521072,9.797372817993164
1.7814795970916748,0.0005312976427376,0.000763488933444,0.0014050817117094,-0.0363589487969875,0.023839231580497,9.79586696624756
1.7894744873046875,0.0008502071723341,0.0015069195069372,0.0022569634020328,-0.0468096435070037,0.0305205788463366,9.78252124786377
1.797464370727539,0.0014866269193589,-0.001466074027121,0.0022692400962114,-0.0397243164479732,0.0324552319943916,9.796292304992676
1.8014636039733887,0.0033000223338603,-0.0012575984001159,0.0012138541787862,-0.0344814136624336,0.0339105129241955,9.799644470214844
1.8056204319000244,0.0008547566831111,-0.0020071109756827,-0.0016664061695337,-0.0383261293172836,0.0482750758528721,9.804783821105955
1.813476800918579,0.0014944435097277,-0.0006234152242541,-7.457379251718513e-05,-0.044501107186079,0.0367392897605908,9.790943145751951
1.8182647228240967,0.0013432055711746,0.0017842524684965,-0.0018675406463444,-0.0508431978523731,0.0336849987506878,9.852055549621582
1.8262767791748047,-0.0002120551653206,0.0018392377533018,0.0016171112656593,-0.033964566886425,0.0190299060195696,9.793063163757324
1.830270767211914,-7.757917046546936e-07,0.0014013876207172,0.0016195978969335,-0.0325731076300144,0.0319415740668785,9.78780460357666
1.8390567302703857,-0.0016769582871347,0.0005471021868288,-0.0006396537646651,-0.0381042920053005,0.0297597367316496,9.755237579345703
1.8438737392425537,-0.0011408587452024,-0.0022056098096072,-0.0004535811021924,-0.0457996726036071,0.0210708677768719,9.778525352478027
1.8519117832183838,-0.0008473764173686,-0.0015812902711331,3.011804074049016e-05,-0.0392150022089481,0.0075296759605419,9.787883758544922
1.855860710144043,-0.0003075613640248,-0.0011586952023208,-0.0011456524953246,-0.0450480580329895,0.0172336790710699,9.808205604553224
1.8598616123199463,0.0008548242039978,0.0004406054504215,0.0005533536896109,-0.045442271977663,0.032928414642812,9.794883728027344
1.8638978004455566,0.0003281268291175,-0.0002015214413404,-0.0010400475002825,-0.033938143402338,0.0261695571243774,9.778358459472656
1.867872714996338,0.0002158228307962,-0.0001971623860299,0.0006657382473349,-0.0305943135172128,0.0209461431950342,9.784478187561035
1.8719127178192139,-0.0003229698631912,-0.0015767468139529,0.0014111306518316,-0.0330603756010532,0.0071437545120728,9.80777645111084
1.8758697509765625,-0.0003202536609023,-0.0013611684553325,0.0023749349638819,-0.0344265885651111,0.0252832137048256,9.782522201538086
1.8798816204071045,-0.000211645849049,0.0001241308636963,0.001299675554037,-0.0515562258660793,0.0256369654089224,9.76638889312744
1.8839914798736572,0.0004263087175786,0.0001187562011182,0.0004544025287032,-0.0405101403594017,0.0409162268042576,9.754446029663086
1.887892723083496,0.0023433617316186,0.0021525537595152,0.0006685461848974,-0.0545020662248134,0.0305252429097902,9.789578437805176
1.891899585723877,-0.0001030596904456,0.000974737573415,2.2576190531253696e-05,-0.0575253367424011,0.0287309139966976,9.824745178222656
1.895857810974121,0.0008598193526268,-0.0004090243019163,0.0013109622523188,-0.0499337017536163,0.0302280392497789,9.844698905944824
1.8998606204986572,-0.0009554277639836,-0.0012603760696947,0.0006656441837549,-0.0320946499705314,0.0214672964066279,9.80208683013916
1.9038705825805664,-0.0010624718852341,0.0004466925747692,-8.675735443830496e-05,-0.0330492183566093,0.0242997892200958,9.800572395324709
1.9080007076263428,9.40077006816864e-06,-0.0013713845983147,-0.0010324507020413,-0.0306459628045558,0.0210366360843193,9.799796104431152
1.91192626953125,-0.0001003760844469,-0.000198345631361,0.0002417145296931,-0.0285754464566707,0.0218930318951618,9.773089408874512
1.9158704280853271,0.0034245373681187,0.0005419882945716,-0.0024163094349205,-0.0215544551610946,0.0280856750905525,9.786949157714844
1.9199774265289307,0.0009651575237512,-0.002226295415312,-0.0013498370535671,-0.0282290372997522,0.0243013035506022,9.791659355163574
1.923865556716919,0.0011871485039591,-0.0010661422275006,-0.0001702876761555,-0.0316631942987442,0.0166774634271872,9.813323974609377
1.9278695583343506,0.0006467765197157,0.0012849420309066,-0.0009232545271515,-0.0321335792541503,0.0233531091362249,9.814287185668944
1.9319243431091309,0.0021370048634707,-0.0005280142650008,-0.0004856111481785,-0.0402565822005271,0.0281209796667111,9.805621147155762
1.9358675479888916,0.0005334522575139,1.2246426194906343e-05,0.0008950745686888,-0.0424583069980144,0.0270744338631641,9.774325370788574
1.9398624897003174,0.0011790408752858,0.0029839500784873,-0.0008179834112524,-0.0362605266273021,0.0294585935771477,9.775812149047852
1.9438583850860596,-9.56016592681408e-05,-0.0008390014991164,0.0001433175057172,-0.0362114906311035,0.0188748799264442,9.754934310913086
1.9478802680969238,0.0006632790900766,-0.0009708856232464,-0.0016466784290969,-0.0152466408908367,0.0260539334267389,9.779909133911133
1.952061414718628,0.0010751290246844,-0.0014982656575739,0.0004874030128121,-0.0244372226297855,0.0428848974406731,9.786388397216797
1.9558594226837158,-0.0011553419753909,-0.0001034019514918,-0.0013386802747845,-0.0300177559256553,0.0470545515418064,9.782235145568848
1.959869384765625,0.000446222256869,0.0005191056989133,-0.0013321167789399,-0.0445113405585289,0.0309771858155739,9.808670043945312
1.9638614654541016,0.001289049629122,0.0014741383492946,-0.0012255855835974,-0.0369586758315563,0.0242742188274872,9.828221321105955
1.967869520187378,0.0004436103627085,0.0021196058951318,4.335679113864873e-05,-0.0293095037341117,0.0400842502713215,9.823508262634276
1.9719083309173584,0.0007584113627672,0.0029729674570262,0.0005771396681666,-0.0225431080907583,0.0314025580883038,9.80740737915039
1.9758565425872803,-0.001367948949337,0.00019346550107,-0.0006001372821629,-0.0282834023237228,0.0270915925502789,9.804062843322754
1.9798715114593506,0.0006636283360421,0.0007303957827389,-0.0027179489843547,-0.0225190911442041,0.0309238899499189,9.799339294433594
1.9878854751586914,0.0022527030669152,-1.3786368072033142e-05,-0.0017495197243988,-0.0511548370122909,0.0184696260839712,9.799249649047852
1.9958574771881104,-0.0004070177674293,0.0005176938138902,-0.0007005129009485,-0.0373028106987476,0.0332913212478172,9.791717529296877
2.0038633346557617,0.0004400494508445,-0.0002193376421928,0.0009044976904988,-0.0513311997056007,0.0060981176793587,9.832096099853516
2.0080103874206543,0.0002269293181598,-2.468936145305484e-06,0.0012210961431264,-0.0421828664839267,0.0223574973642838,9.815482139587402
2.0119435787200928,-0.0004045865498483,0.0010636295191943,0.0011114757508039,-0.0305048543959856,0.02412934228778,9.775546073913574
2.0160865783691406,0.0003211572766304,-1.0255258530378193e-05,0.001214469783008,-0.0276089552789926,0.0376151949167263,9.76332950592041
2.019963502883911,0.0002210545353591,0.0002159564755856,0.0018637971952557,-0.0229009296745061,0.0408927947282803,9.785578727722168
2.023867607116699,0.0012926110066473,-0.0019185952842235,0.0013475725427269,-0.028273332864046,0.0323615968227398,9.803083419799805
2.027867555618286,1.6203615814447403e-05,-0.0004374217242002,-0.0002673668786883,-0.0278389677405357,0.0191070530563604,9.824082374572754
2.0319182872772217,-0.000194969587028,0.0007417420856654,-0.0004814965650439,-0.0456155464053154,0.0195436254143726,9.832074165344238
2.035862684249878,7.479917258024216e-06,9.48365777730944e-05,0.0018637375906109,-0.045937679708004,0.0233600288629543,9.815374374389648
2.039855480194092,-0.0014693655539304,-0.0006553744897246,4.3295323848724447e-05,-0.0293176956474781,0.0267264880239975,9.82262897491455
2.0438685417175293,-0.001580613432452,-0.0009655952453613,0.0001549813896417,-0.0306597594171762,0.0275568626821053,9.801794052124023
2.0478975772857666,-0.0026423754170536,0.0001988476142287,3.869179636240003e-05,-0.0252727512270212,0.0260815899819147,9.775214195251465
2.0519535541534424,-0.0007295876275748,-0.0001119612716138,-0.0007030977867543,-0.0213757641613483,0.0269057955592882,9.751328468322754
2.0558536052703857,-0.0010476727038621,-0.0025681830011308,-0.000477519351989,-0.0251987501978874,0.0283793397247803,9.764812469482422
2.0598535537719727,0.0001260382123291,-0.0009626373648643,-0.0012264279648661,-0.0191394165158271,0.0246820561587822,9.789926528930664
2.0639126300811768,0.0009727776050567,-0.0017054509371519,-0.0002610739320516,-0.0133405588567256,0.0303672365844261,9.785158157348633
2.067875623703003,0.0012937197461724,-5.819369107484862e-06,-0.0003697392530739,-0.0387906283140182,0.0328443609178078,9.804083824157717
2.0719516277313232,0.0008717649616301,0.0010514529421925,-0.0012298519723117,-0.0387950204312801,0.0309526249766361,9.81168270111084
2.0758554935455322,0.0003346926532685,0.0008415416814386,-0.0013377340510487,-0.0297812577337026,0.0281325429677975,9.825519561767578
2.079906702041626,-0.0007336817216128,-0.0007569408044219,-0.0002654716372489,-0.0301658120006322,0.0304468795657169,9.802162170410156
2.0838565826416016,-0.0015776841901242,0.0021361024118959,-0.0013576108030974,-0.0311913955956697,0.023305030539633,9.809027671813965
2.087862491607666,-0.0005208004731684,0.0029761283658444,0.0007820334285497,-0.0204362049698829,0.0241077002137911,9.76669692993164
2.0918936729431152,-0.0005214563570916,0.0004221722483634,0.0011098682880401,-0.0361799150705337,0.0250173341482889,9.750927925109863
2.0958635807037354,0.0002239323221147,0.0005293400026857,0.0009007286280393,-0.0347367227077484,0.0168781988322746,9.765270233154297
2.099862575531006,-0.0016867159865796,-0.0008586896583437,-0.0003793318755924,-0.0344689674675464,0.0170593149960053,9.802727699279783
2.107865571975708,0.0009739561937749,0.0004244754090905,0.0001536691561341,-0.0340697616338729,0.0133036766201269,9.808951377868652
2.115851879119873,0.0003398018889129,0.0005227313376963,-0.0009118649177253,-0.0349400267004966,0.0290032811462891,9.797917366027832
2.1238598823547363,-0.0015876174438744,0.0016017546877264,4.715751856565456e-05,-0.0314158648252487,0.0111282318830502,9.752910614013672
2.1318938732147217,-0.0003996342420578,0.0004226407036185,-0.0005929316394031,-0.0400949381291866,0.0231659002602112,9.767585754394531
2.139859914779663,-0.0010454137809574,-0.0003300877287983,-0.0015493794344365,-0.0506314635276794,0.0404351390898239,9.781235694885254
2.1478607654571533,0.0020385035313665,-0.0016056005842983,-0.0007878900505602,-0.0340427011251449,0.0367368794977676,9.815987586975098
2.155864715576172,-0.0003125744406133,0.0022357860580086,0.0012122048065066,-0.0392757281661033,0.0285385381430399,9.802678108215332
2.163872718811035,0.0022378857247531,0.0019211038015782,0.0016433428972959,-0.0263488870114088,0.0127049665898096,9.797124862670898
2.167862892150879,0.0024633682332932,0.0009550107643008,6.337929517030704e-05,-0.0186764691025018,0.021847626194359,9.801846504211426
2.1719417572021484,0.0003360477276146,0.0005164216272532,-0.0005827923305332,-0.0273263435810804,0.0185705386102211,9.808603286743164
2.1758534908294678,0.0012885406613349,-0.0025618821382522,0.0001637432724237,-0.0124846417456865,0.0343885868787777,9.825531959533691
2.179866075515747,0.0017188847996294,-0.0028818761929869,6.454717367887532e-05,-0.0096881678327918,0.0353288874030125,9.824170112609863
2.1878654956817627,-8.92002135515213e-05,0.0005259942263364,0.0004740618169307,-0.043026402592659,0.0179646965116274,9.789897918701172
2.1958534717559814,-0.000941862585023,9.145680814981454e-05,-0.0005940245464444,-0.0233120694756507,0.0150322411209356,9.766200065612791
2.203864097595215,-0.0006340795662254,0.0010638684034347,0.0004681069403886,-0.0443907976150512,0.0255982279777538,9.775147438049316
2.2079994678497314,-0.0002131927758455,-0.0007411036640405,0.0016418239101767,-0.0420952215790748,0.016592910513283,9.803681373596191
2.211947202682495,0.0009511364623904,0.0012896321713924,0.0001382082700729,-0.0454725883901119,0.0114218108356011,9.818537712097168
2.215862274169922,-0.001374440966174,-0.0003556138835847,-0.0010186815634369,-0.033082827925682,0.0200476218014967,9.822158813476562
2.219853162765503,-0.0008360447827726,0.0007461262866854,0.0003515128046274,-0.0305407978594303,0.0317424945533287,9.783824920654297
2.22385835647583,-0.0008399561047554,0.0002047549933195,-0.0012272563762962,-0.0319531820714473,0.0514372028410446,9.772734642028809
2.2278711795806885,0.0005481797270476,0.0014824499376118,-0.001019506715238,-0.0339123047888278,0.04333245009184,9.784186363220217
2.231898307800293,0.0008627264760434,0.0008425121195614,-0.0006956895813345,-0.0204191040247678,0.0423060841858398,9.764763832092283
2.2358591556549072,0.0016120127402245,0.000207660254091,0.0002677701413631,-0.0257925651967525,0.025057563558222,9.780585289001465
2.2398643493652344,0.0010846843942999,0.0005127247422933,-0.0029358058236539,-0.0401343666017055,0.0122788846492779,9.79853343963623
2.243854284286499,0.0028851637616753,-0.0006397650577127,-0.0002565942704677,-0.0539858601987361,0.008840497583152,9.781867027282717
2.247859239578247,0.0020209401845932,-0.0007524588145315,0.0011108545586466,-0.0534944310784339,0.0112337544560444,9.7732515335083
2.2518961429595947,0.0021325503475964,0.0003198804333806,0.0029265712946653,-0.0391495749354362,0.0276380386203539,9.7880859375
2.2558481693267822,0.000739021692425,-0.0021268860436975,0.0012250617146492,-0.0220759864896535,0.0439206808805477,9.821859359741213
2.2598512172698975,-0.0009543295018374,0.0026622167788445,0.0016312859952449,-0.0192730966955423,0.0334360562264931,9.82846736907959
2.2638611793518066,-0.0005225953646004,0.0011678826995193,-0.0007023895159363,-0.0204711575061082,0.0275325309485209,9.782892227172852
2.2678773403167725,-0.0008437491487711,-0.0002145492471754,0.0006810668855905,-0.0238827373832464,0.0284844599664223,9.784765243530272
2.2758612632751465,-0.0002925316803157,-0.0007692207582294,-0.0021729515865445,-0.0209427755326032,0.043769020587207,9.780014991760254
2.2838661670684814,-0.0023191368672996,-0.0009717629291117,-0.002937436569482,-0.0514281690120697,0.0096959993243229,9.744370460510254
2.29189133644104,-0.0005292736459523,-0.0009625228121876,0.0005732141435146,-0.0429927445948123,0.0289570316672337,9.784733772277832
2.299852132797241,0.0021294923499226,0.0020272103138268,0.0022819004952907,-0.0359800606966018,0.0257497522979986,9.819890022277832
2.3078742027282715,0.0011692061088979,-0.00213028723374,-0.0004693646915256,-0.0558554232120513,0.0169593747705233,9.768170356750488
2.315859079360962,-0.0011628996580839,0.0020109307952225,-0.0007116156630218,-0.0090724723413586,0.0132144689559948,9.798242568969728
2.323873996734619,0.0014998288825154,-0.0014988193288445,-0.0003655087202787,-0.044509045779705,0.0075113438069832,9.80519676208496
2.3318886756896973,0.0009695384651422,-0.0004278509877622,-0.0016523734666407,-0.0264430306851863,0.0133611876517546,9.830438613891602
2.335875988006592,0.0024610161781311,-0.0014886022545397,-0.0006841365247964,-0.0339017324149608,0.0328764617443096,9.781737327575684
2.339862108230591,0.0010689455084502,0.000213589053601,0.0014365203678607,-0.0382407009601593,0.0246950313448917,9.791877746582031
2.343851089477539,-0.0006397617980837,-0.0004246803000569,0.0020703738555312,-0.0238327961415052,0.0170014780014765,9.779151916503906
2.35196590423584,2.6403460651636124e-05,-0.0009602103382349,-0.0012320415116846,-0.0385477617383003,0.0126925576478254,9.772847175598145
2.359847068786621,0.0012982026673853,-0.001397815067321,-0.0017565404996275,-0.0526215434074401,0.0299883764237177,9.786730766296388
2.3638510704040527,0.0023541995324194,-0.0001144260168075,-0.0011127875186502,-0.0390052273869514,0.0164131522178661,9.74538230895996
2.3679089546203613,0.0007534115575253,-0.0007466557435691,0.000160283409059,-0.0352648459374904,0.0068901143968117,9.763957023620604
2.3718879222869873,0.0010696970857679,-0.0019183312542736,0.0008035227656364,-0.0176696255803108,0.0223119165748369,9.783907890319824
2.3798630237579346,-5.580950528383255e-06,-0.0024362038820981,0.0010173637419939,-0.0257530454546213,0.02567525394261,9.790483474731444
2.3878626823425293,-0.000421572709456,-0.0011685364879667,0.0014328695833683,-0.028613181784749,0.0284345038235199,9.769615173339844
2.3958959579467773,-0.0004249841440469,0.0004225745797157,-0.0008149961940944,-0.0231904480606317,0.0182112213224184,9.845380783081056
2.40385103225708,0.0005430658347904,0.0003135558217763,-0.0008027884177863,-0.0436488091945648,0.0176527034491312,9.828478813171388
2.408003091812134,1.447787508368492e-05,-0.0016073454171419,-0.0017572827637195,-0.0398026593029499,0.0377089418470871,9.819405555725098
2.4119250774383545,0.0011806203983724,-0.000759239308536,0.0004796115681529,-0.0263265594840049,0.0452496260404598,9.788996696472168
2.4160022735595703,0.0009562498889863,0.0010780901648104,-0.0009197820909321,-0.0357960313558578,0.0457795374095451,9.776407241821287
2.4198474884033203,0.0006507826037704,0.000308247283101,-4.934333264827732e-05,-0.0262919850647449,0.030956180766226,9.795291900634766
2.423858404159546,0.000111929140985,0.0002095769159495,0.0003679785877466,-0.0281648449599742,0.0151053238660109,9.783443450927734
2.4278674125671387,0.0019231573678553,-0.0021325061097741,-0.000150523148477,-0.0301678776741027,0.0089566409587872,9.804828643798828
2.4318854808807373,-0.0003149285912513,-0.0006313035264611,-0.0005801199004054,-0.0378050059080123,0.0046402104198944,9.805327415466309
2.4358713626861572,-9.382050484418868e-05,-0.0004322379827499,-0.0003809779882431,-0.0335101261734962,0.0113660637289297,9.804306030273438
2.4398443698883057,0.001395795494318,-0.0010688360780477,-0.0011132606305181,-0.035585418343544,0.0186542309820664,9.844185829162598
2.443859338760376,-0.0005247606895864,-0.0005463859997689,-0.0010151709429919,-0.0317806378006935,0.025262735784055,9.82513427734375
2.4478683471679688,0.0005386993288993,0.0016992529854178,0.0003639832139015,-0.0215611215680837,0.030027234926821,9.808149337768556
2.451993465423584,-0.0009491117671132,0.0006123557686805,-0.0007136040367186,-0.028550885617733,0.0245226714760077,9.76088809967041
2.4558475017547607,0.000655717216432,-0.0042675375007092,-0.0013141990639269,-0.0178371593356132,0.0149363260716211,9.73268985748291
2.4646434783935547,0.0008954224176704,-0.0007132161408662,-0.000514707993716,-0.0253943372517824,0.0217631179839384,9.77022933959961
2.469463348388672,-0.0005253520794212,-9.059999138116838e-05,-7.805414497852324e-05,-0.03587456792593,0.035019349306823,9.79863166809082
2.473456382751465,-0.0004270051140338,0.0003245398402214,0.0008077723905444,-0.0316612608730793,0.0387333407998097,9.812532424926758
2.4774863719940186,0.0011808960698544,0.0004236032254993,-0.0002694204449653,-0.0278582610189914,0.0396681725978863,9.826586723327637
2.48149037361145,-0.0003100964240729,-0.0012797280214726,5.720369517803208e-05,-0.0320652090013027,0.0276545882225048,9.809582710266112
2.48945951461792,0.0006500985473394,-0.0009662033990025,-0.001755247823894,-0.0194296315312385,0.0221681818366062,9.751676559448242
2.493450403213501,0.0006528324447572,-0.0009653861634433,-0.0007951175794005,-0.0266082230955362,0.0264932550489914,9.74876594543457
2.4974703788757324,-0.0005221299361437,-0.0002203057520091,-0.0011259946040809,-0.0385316535830497,0.0202564969658863,9.749701499938965
2.505488395690918,-0.000308423070237,-0.0010728645138442,-0.0017606643959879,-0.0177485011518001,0.0214142203331005,9.811062812805176
2.509467363357544,0.0001115868799388,-0.0004258709959685,4.960782825946813e-05,-0.0267010629177093,0.0208401251584303,9.77586841583252
2.5134518146514893,0.0016084755770862,-0.0024539385922253,-0.0003636348992586,-0.0449112206697464,0.014602391049267,9.784794807434082
2.521448850631714,0.0001093372702598,-0.0006426903419196,-0.0003780359402298,-0.0138498079031705,0.0251753609627497,9.788232803344728
2.529452085494995,0.001076313201338,-0.0010927990078926,-0.0021860925480723,-0.0237320680171251,0.025070955976845,9.752015113830566
2.5334548950195312,-0.0008432967588305,0.0007401527836918,-0.0005937162786722,-0.0104917054995894,0.0217864234000456,9.770744323730469
2.541459798812866,0.0010705590248107,-0.0001130914315581,-0.000798970926553,-0.0254100561141967,0.0132996868342173,9.81012725830078
2.5454487800598145,0.0005320901982486,-0.0027675344608724,0.0004827892407774,-0.0359044596552848,0.0219283606857073,9.80816650390625
2.5534486770629883,-0.0023277476429939,-0.001282712444663,-0.0013506961986422,-0.0401898771524429,0.0094446763396275,9.807762145996094
2.557447910308838,-0.0019172597676515,-4.769302904605756e-06,0.0008918084204196,-0.040639292448759,0.022699235007168,9.77872085571289
2.561450958251953,-0.0013885556254535,0.000850111246109,0.000786199234426,-0.034417625516653,0.0247393585741531,9.788653373718262
2.5655789375305176,0.0010730195790529,-0.0010792110115289,-0.0011138943955302,-0.0319627113640308,0.0184236261993658,9.777787208557127
2.569575786590576,0.0006362181156873,0.0008531995117664,0.0012196749448776,-0.0267144311219453,0.0366498529911053,9.781551361083984
2.5790607929229736,0.0023197024129331,0.0007750689983367,-0.0005825348198413,-0.0247143898159265,0.0161960609257233,9.802111625671388
2.5870628356933594,-0.0023401295766234,0.0013728770427405,0.0012316266074776,-0.0276801344007253,0.0241764560341847,9.795418739318848
2.59505295753479,-0.0008375071920454,-0.0014963867142796,0.0009169112890958,-0.0265512242913246,0.031149484217168,9.741938591003418
2.603055953979492,-0.000312841264531,-0.0030980692245066,0.0012436732649803,-0.025107018649578,0.031156897544862,9.740949630737305
2.607196092605591,0.0005536335520446,0.0011442969553172,-0.0023838626220822,-0.0199788827449083,0.0379464626312267,9.76696491241455
2.611072063446045,0.0010819099843502,0.0006133816204965,-0.0018482087180018,-0.0033320384100079,0.0332504808902752,9.797075271606444
2.6151609420776367,0.0005448525771498,-0.0005526221357285,-0.0012059579603374,-0.0062391464598476,0.0199076347053063,9.8095064163208
2.6193439960479736,-0.0020094173960387,-0.0005505569279193,-0.0006900927983224,-0.0178601760417222,0.0089618600904953,9.827532768249512
2.6230549812316895,-0.0012600808404386,-0.0010867221280932,-0.0014300104230642,-0.0206443052738904,0.0175583548843872,9.820300102233888
2.6270689964294434,-0.0004055390600115,-0.0004479801282286,-0.0017484435811638,-0.0282090604305267,0.0141301844269049,9.79704761505127
2.6350409984588623,0.0020356285385787,-0.0022563375532627,-0.0003439816646277,-0.0318900719285011,0.0321822091937077,9.765698432922363
2.6390841007232666,0.0003285622224211,-0.0004391241818666,-0.0006813001818954,-0.0319461375474929,0.0375160276889813,9.777948379516602
2.643052101135254,0.0009855525568127,0.0005168514326214,7.3133036494255e-05,-0.0319683514535427,0.0332259759306919,9.787062644958496
2.65106201171875,0.001712326426059,8.973293006420135e-05,-3.759562969207765e-05,-0.0301159396767616,0.0193821899592888,9.791787147521973
2.6590559482574463,-0.0017974926158785,-0.0009745475836098,-0.0004730885848402,-0.0262033753097057,0.0298480093479168,9.775177001953123
2.6670870780944824,-0.0024313863832503,0.0028472412377595,0.0003716293722391,-0.0352922454476356,0.0203799456357967,9.786479949951172
2.6750619411468506,0.0008711325936019,0.0041217249818146,-0.0004756250418722,-0.030121874064207,0.0093672834336769,9.805974006652832
2.6830530166625977,0.0018052058294415,-0.0014843270182609,5.220714956522006e-05,-0.0357794053852558,0.0371907316148293,9.776938438415527
2.687129020690918,-0.0002119913697242,0.0008536223322153,-0.0009228154085576,-0.0262703672051429,0.045336350798608,9.785029411315918
2.691049098968506,-0.0001149321906268,0.0007566856220364,0.0013134786859154,-0.0307084750384092,0.0272356998175394,9.815025329589844
2.6990549564361572,0.0013794163241982,0.0006424197927117,-0.0003854008391499,-0.0368490293622016,0.0166427083313477,9.797897338867188
2.7071709632873535,-0.0009625128004699,-0.0010577919892966,3.804638981819166e-05,-0.0433957166969776,0.034264560788871,9.765057563781738
2.711041212081909,-0.0012819373514503,-0.0021207523532211,-0.0001735650002956,-0.0271479152143001,0.0400024242699158,9.769403457641602
2.7150521278381348,0.0009441371075809,-0.0031784712336957,0.0012297965586185,-0.030603414401412,0.039606098085643,9.795842170715332
2.7191741466522217,0.0012671328149735,-0.0025429571978747,0.0013310173526406,-0.035413060337305,0.0272072441875946,9.802642822265623
2.7230961322784424,-7.331371307373047e-06,0.0009687631390988,-0.0006080656312406,-0.0359385944902896,0.0167034715414059,9.81363296508789
2.731074094772339,-0.0006491520907729,-0.0005110595375299,0.0009901309385895,-0.0417248643934726,0.0248453915119183,9.814000129699709
2.7350640296936035,-0.0020308312959969,0.0014980100095272,0.0010917987674474,-0.0467999838292598,0.0329190976917755,9.7901611328125
2.73905611038208,-3.730412572622299e-06,0.001071142964065,-7.09667801856996e-05,-0.0387075953185558,0.030504059046508,9.789323806762695
2.7470791339874268,0.0006284560076892,0.0013951482251286,0.0013154773041605,-0.0344101041555404,0.0290436409413826,9.78983211517334
2.7512621879577637,-0.0004390692338347,-0.0006348863244056,0.0032466510310769,-0.0295374430716037,0.0151422731578362,9.776021003723145
2.7590510845184326,-0.001385222421959,-0.0005251234397292,-0.0003904867917299,-0.0244435742497444,0.0004258044064056,9.808488845825195
2.7630510330200195,0.0009535062126815,-0.0004257280379533,-0.0005894801579415,-0.0239965803921222,0.0190524160861981,9.815534591674805
2.767073154449463,0.0001009455882012,-0.0014790035784244,0.0001480430364608,-0.0163463167846202,0.0152902118861687,9.812732696533203
2.7710511684417725,0.0002089943736791,-0.0008521471172571,-0.0005871038883924,-0.0229892581701278,0.0257961954921496,9.816085815429688
2.7750401496887207,0.0005395677872002,0.0005263602361083,-0.0011374186724424,-0.0386931337416172,0.0219582188874495,9.80068302154541
2.779085159301758,0.0008440883830189,-0.0013811658136546,5.086045712232607e-05,-0.0323090702295303,0.0155798848718416,9.76031494140625
2.783039093017578,0.0009586005471646,0.0008689924143254,-0.0003942037001252,-0.0267043728381395,0.0184696651995194,9.768213272094728
2.7870521545410156,-0.0006396730896085,-0.0006300993263721,-0.0004914491437375,-0.0344087518751621,0.0333609692752373,9.789377212524414
2.7950572967529297,0.0002084854058921,-0.0007400237955152,-0.001233444083482,-0.0329888649284839,0.0353068374097359,9.79971408843994
2.803053140640259,-0.0002211392857134,-0.0003093755804002,0.0008917786180973,-0.0272067748010158,0.0285653285682213,9.782737731933594
2.8072280883789062,-1.2437812983989716e-05,1.0294839739799466e-05,-0.0002737222239375,-0.0373060628771781,0.0190160870552075,9.799753189086914
2.8110501766204834,-0.0013921638019382,-0.0004307418130338,-0.0009325165301561,-0.0267618428915739,0.023410225287081,9.7994384765625
2.8151612281799316,-0.0023381004575639,-0.0013816165737807,-0.0012442041188478,-0.0248965695500373,0.0376869142055523,9.802224159240724
2.823054313659668,-0.0019132890738546,0.0012817843817174,-0.0014625219628214,-0.0157160945236682,0.0151194259524357,9.785663604736328
2.827068328857422,-0.0004221913404762,0.0006395578384399,-0.0016672490164637,-0.021957503631711,0.0127937979996216,9.78803253173828
2.8310563564300537,-0.0007413632702082,-0.0040431069210171,-0.001864390913397,-0.033531978726387,0.0205242354422819,9.809800148010254
2.835083246231079,0.0009312191978096,-0.0037016593851149,0.0003673024475574,-0.0387939848005771,0.0234288945794117,9.81832790374756
2.839052200317383,7.353257387876511e-06,-0.0007409420795738,-0.0004914365708827,-0.0426935143768787,0.0378010720014584,9.81056785583496
2.8430492877960205,0.0003157593309879,0.0009610084816813,0.0002577900886535,-0.0331185013055801,0.0382841490209114,9.825453758239746
2.847060203552246,9.855302050709724e-05,0.0007429188117384,-0.0007175812497735,-0.0292571131139993,0.0368453972041618,9.816996574401855
2.8510491847991943,0.001063734292984,-8.775386959314341e-05,0.0004651388153433,-0.0320369154214859,0.0310689732432377,9.806906700134276
2.8550384044647217,-0.0009619160555303,-0.0019101966172456,0.0004689814522862,-0.036380723118782,0.0214738082140696,9.805561065673828
2.8590502738952637,-1.3131648302078249e-05,0.0027787936851382,0.001840884797275,-0.045908510684967,0.0333853140473377,9.795953750610352
2.8631043434143066,0.0003079674206674,0.0019187084399163,0.0004565436393022,-0.0468675270676612,0.0204718057066214,9.806499481201172
2.867063283920288,-0.0001096427440643,9.702052921056737e-05,-0.0009257472120225,-0.0353959538042545,0.0200665891170513,9.814105987548828
2.8710412979125977,-0.0006393673829734,-2.3376196622863683e-07,-0.0012383027933537,-0.0522056482732296,0.0248732622712862,9.821593284606934
2.8750572204589844,0.0001042848452925,0.0020240168087184,-0.0008217548020184,-0.0589338615536689,0.0305501893162739,9.826138496398926
2.879045248031616,0.001278256997466,0.0005321064963936,-0.0016583302058279,-0.0383164435625076,0.0277001261711132,9.809773445129396
2.883061170578003,0.0020339926704764,0.0009484854526817,-0.0035816361196339,-0.0415741391479969,0.032386325299741,9.787981033325195
2.887068271636963,-3.5371631383895874e-06,0.0010674898512661,0.0001439582556486,-0.0371226221323013,0.0299143232405197,9.749001502990724
2.895057201385498,0.0013801609165966,0.0015088794752955,-0.0002796901389956,-0.0481033995747566,0.0212657731026423,9.752852439880373
2.8990492820739746,-0.0001144194975495,-0.0009528682567179,0.0001507075503468,-0.0439229160547256,0.0328668691217911,9.779351234436035
2.903038263320923,0.0008539380505681,-0.0022425563074648,-0.0012309439480304,-0.044523287564516,0.0382191687822353,9.807317733764648
2.907191276550293,0.0003097243607044,0.0001148548908531,0.00089415255934,-0.0431814230978488,0.0330429188907158,9.831583976745604
2.9110512733459473,-0.0004280901048332,-0.0012746481224894,-0.0005922066047787,-0.0522721335291862,0.0282653197646153,9.832515716552734
2.9150466918945312,-0.0003195288591086,0.0001995195634663,-0.0023028315044939,-0.0489753112196922,0.01827071607113,9.842466354370115
2.919076681137085,-0.0005336424801498,0.0013936078175902,-6.789993494749087e-05,-0.0646289363503456,0.0095958337187779,9.825798988342283
2.9270551204681396,0.0019086301326751,0.0015909662470221,-0.0013492456637322,-0.0476735234260559,0.023217771202327,9.761712074279783
2.931061029434204,0.0008488725870847,-0.00149188330397,-0.0017657214775681,-0.033964030444622,0.0280875712633144,9.785054206848145
2.9390432834625244,0.0004218742251396,-4.463363438844689e-06,-6.910786032676697e-05,-0.0348500572144985,0.0118334479630005,9.786023139953612
2.9470999240875244,-0.0016051507554948,-0.0012743370607495,-6.772018969058974e-05,-0.0416743978857994,0.0244937129318726,9.82352352142334
2.9510459899902344,-0.0009549804963171,0.0001204367727041,-0.0001745326444506,-0.0355005078017711,0.0435374900698673,9.821637153625488
2.9550468921661377,-0.0006396581884473,0.001699096057564,0.0004535783082246,-0.0435095690190792,0.026795305311681,9.81086254119873
2.9630439281463623,-0.0004356745630502,0.0004305592738091,-0.0002776999026536,-0.033875897526741,0.017065215855838,9.775601387023926
2.967060089111328,0.0002079005353152,-0.0005281069315969,4.677288234233863e-05,-0.0438821539282798,0.0122262444347155,9.767562866210938
2.9710466861724854,-0.0002092495560646,-0.0017076404765248,-0.0025075217708945,-0.0319232903420925,0.0246811732649815,9.769452095031738
2.9750750064849854,8.889241144061089e-05,0.0001116339117288,0.0022755665704607,-0.0381365865468978,0.0337649881839764,9.767488479614258
2.9790499210357666,0.0008350126445293,0.0005291770212352,0.0018448969349265,-0.0382705107331275,0.0295386090874683,9.79999542236328
2.9830360412597656,-0.0008665891364216,-0.0008440352976322,0.0008939281105995,-0.0406381748616695,0.0463601239025604,9.800209999084473
2.987046957015991,0.0003105732612311,0.0006447359919548,0.0005743438377976,-0.0522197857499122,0.043534539639951,9.821070671081545
2.991049289703369,0.0015869536437094,0.0001101018860936,0.000580670312047,-0.0444412119686603,0.0348073765635502,9.787436485290527
2.995065927505493,0.001479503698647,-0.0003018388524651,0.0011163670569658,-0.0338890329003334,0.0333146303892147,9.77846622467041
2.999037027359009,0.0005176337435841,0.0004310370422899,0.0010011866688728,-0.0243178978562355,0.03764107823372,9.776569366455078
3.0030760765075684,0.0029737981967628,0.0005340119823813,-0.000380830373615,-0.0209443345665931,0.0347144417464745,9.764222145080566
3.0071706771850586,0.0011637927964329,0.0005318270996212,-0.0010130447335541,-0.0319313704967498,0.0294692851603043,9.77043628692627
3.011033535003662,0.0012675165198743,-0.0007390389218926,0.0007965946570038,-0.0249125622212886,0.023378122597934,9.807012557983398
3.0151915550231934,0.0011640144512057,-0.0016943980008363,0.0004787826910614,-0.0244628302752971,0.030096059665085,9.817890167236328
3.0190443992614746,0.0004229289479553,0.0005305828526616,-0.0005963635630905,-0.0350530929863452,0.0339957699179661,9.833056449890137
3.023057699203491,-0.0013857868034392,0.0033018295653164,-0.0013534226454794,-0.0379394516348838,0.0344902873039257,9.83444118499756
3.027066469192505,-0.0017047941219061,0.0003164177760481,-0.0014520995318889,-0.0398365817964077,0.0330468639731419,9.83254623413086
3.0310704708099365,-0.0015037078410387,9.004026651382543e-06,0.0007886849343776,-0.0268285367637872,0.0161433443427097,9.8065767288208
3.035057544708252,-0.0021402218844741,-0.0002100197598338,0.0009918855503201,-0.0253428425639867,0.007086466997863,9.798516273498535
3.043034553527832,0.000637540128082,0.0007408936507999,-0.0012410474009811,-0.0342731326818466,0.0280384160578262,9.760367393493652
3.04705548286438,-9.171664714813232e-06,0.0005388837307691,0.0003635995090007,-0.0439377762377262,0.0290139708668005,9.786038398742676
3.0510573387145996,-0.0006476426497101,-0.0007425546646118,0.0003590257838368,-0.0467998720705509,0.0266402252018463,9.777433395385742
3.0590744018554688,0.002005002927035,-0.0005257208831608,0.0012225732207298,-0.0430479422211647,0.0267056692391646,9.799381256103516
3.0670485496520996,-0.0013839958701282,-0.0012805005535483,-0.0016596713103353,-0.0359246022999286,0.0195669978857052,9.810783386230469
3.0750443935394287,-0.0005396434571594,-0.0010483604855835,-0.0009150067344307,-0.0405265651643276,0.0137084405869257,9.78410816192627
3.0790345668792725,-0.0001179408282041,-0.001697848085314,0.0007952293381094,-0.0397562682628631,0.0210218299180281,9.814085960388184
3.0830583572387695,9.422190487384796e-05,-0.0021313247270882,0.0003661224618554,-0.0350155346095562,0.0281876474618923,9.82079792022705
3.0872035026550293,-0.0004524530377238,0.0009657284244894,0.0027087768539786,-0.0243425108492374,0.0457720160484326,9.792202949523926
3.0910463333129883,-0.0003281573299318,-9.26810316741464e-05,0.0020505068823695,-0.0411885604262352,0.0366928353905689,9.781201362609863
3.095057487487793,-0.0004395605064928,0.0017044036649167,0.0017422139644622,-0.0281898993998765,0.0233412105590117,9.785567283630373
3.099046468734741,-0.0011830490548163,-0.0003098365850746,0.0009984029456973,-0.0309910010546445,0.0189545676112186,9.777602195739746
3.1070613861083984,0.0007366053760051,-0.0004167612642049,0.0005832416936755,-0.0386603213846683,0.0396102629601967,9.792805671691896
3.1150667667388916,0.0020134421065449,0.0008362857624888,-0.0006860736757516,-0.038106944411993,0.02794659882784,9.76193141937256
3.1230688095092773,0.003083408344537,0.0010632835328578,-0.0011161337606608,-0.0242868904024362,0.0304351300001156,9.77046012878418
3.1270527839660645,0.0002144682221114,0.0010578604415059,-0.00219297548756,-0.0247640367597341,0.0347475931048405,9.769027709960938
3.1310505867004395,0.00075075449422,0.0008529336191713,-0.0015536844730377,-0.0167140401899814,0.0462654307484638,9.786952018737791
3.1350576877593994,-0.000106677878648,0.0003102766349911,-0.0018674544990062,-0.0344522781670093,0.041069518774749,9.805916786193848
3.139045476913452,0.0023281285539269,-0.0002058534882962,0.0010201884433627,-0.0449065901339054,0.0309425778687012,9.782201766967772
3.1430776119232178,0.0003017010167241,-0.0004207473248243,0.0011146944016218,-0.0505915060639381,0.0352404154837143,9.77510929107666
3.147061586380005,-0.0007271519862115,0.0018124491907656,-0.001566918566823,-0.0328195691108703,0.0294414907693874,9.782838821411133
3.1518914699554443,-0.0001807152293622,0.0010517481714487,-0.0023816335014998,-0.0227531846612691,0.0203590113669645,9.806988716125488
3.155839681625366,-0.0016029921825975,-0.0006416598334908,-0.0011316775344312,-0.0307352449744939,0.0325470231473457,9.822214126586914
3.1598408222198486,-0.0022411020472645,-0.0014898395165801,-0.0004896237514913,-0.0229845773428678,0.0243240091949713,9.802762985229492
3.163848876953125,-0.0010752142407,0.0005260743200778,0.0004726396873593,-0.0248521193861961,0.0112811271101248,9.788050651550291
3.1678507328033447,-0.0004263066221028,0.0007393881678581,-0.0020864568650722,-0.0224847123026847,0.0190413556993019,9.797562599182127
3.1719295978546143,0.0003090277314186,-0.0012790043838322,0.0002676555886864,-0.0210822597146034,0.0138162784278404,9.808993339538574
3.175842761993408,-0.000229621771723,-0.0004304912872612,0.0003792783245444,-0.0345441624522209,0.024841194972397,9.808297157287598
3.17984676361084,-0.0013925025705248,-0.0012743505649268,0.0003668023273348,-0.0558836199343204,0.0328418388962757,9.785523414611816
3.1838386058807373,-0.0002163145691156,-7.518101483583653e-06,-0.0016535865142941,-0.048679269850254,0.0519642382860195,9.770756721496582
3.1878538131713867,0.0002076919190585,-0.0004253732040524,-0.001333859283477,-0.0476707406342029,0.0533720925450336,9.760777473449709
3.191892623901367,0.002008207142353,-0.0006420048885047,-0.0016422825865447,-0.0304324384778738,0.036561142653228,9.770464897155762
3.195835590362549,-0.0005362592637538,-0.0007492494769394,-0.0002721222117543,-0.0310611091554164,0.034824024885894,9.782759666442873
3.1998395919799805,-0.0023483310360461,0.0011702463962137,-0.0006101988255977,-0.0315593630075454,0.0194948408752691,9.790796279907228
3.203842878341675,-0.0014015929773449,0.0024506337940692,0.0004613371565937,-0.0406598821282386,0.0228659585118305,9.805500984191896
3.2078707218170166,0.0006331736221909,0.002231546677649,-0.0003823260776698,-0.0512483455240726,0.0249000471085322,9.819735527038574
3.2158379554748535,-0.0017073929775506,0.0006329142488539,-0.0020918995141983,-0.0406056530773639,0.0291036814451229,9.794159889221191
3.219871997833252,-0.0009675987530499,-0.0021352348849177,-0.0003758152015507,-0.0209166314452886,0.024653233587743,9.762005805969238
3.223846673965454,-0.0003264949191361,-0.0019211182370781,-0.0015377574600279,-0.0337091013789176,0.0313168130815041,9.750375747680664
3.231887102127075,0.002430556807667,0.0010670572519302,-0.0006948816590011,-0.0464122183620929,0.0147692933678639,9.798011779785156
3.2358486652374268,0.000212290789932,0.0006271325983107,-0.0028323628939688,-0.0449512526392936,0.016154780983926,9.800824165344238
3.2399659156799316,-0.000963567988947,-0.0005356450565159,-0.0012309178709983,-0.0430637672543525,0.0142796970903885,9.804159164428713
3.2438459396362305,-0.0004403919447213,0.0001053973101079,0.0002569556236267,-0.0469341874122619,0.0309718307107699,9.800729751586914
3.2478606700897217,0.0009493823163211,0.0009594080038368,-0.000164377503097,-0.0272399168461561,0.0419909544289124,9.786572456359863
3.2558400630950928,-2.5112181901931763e-05,0.0021699056960642,-0.0004109553992748,-0.0318296998739242,0.0372207202017319,9.757540702819824
3.2598400115966797,-0.0002319966442883,-0.0005040559917688,-0.0017936998046934,-0.0414469316601753,0.0276616364717495,9.749558448791504
3.263983964920044,0.0003987406380474,0.0002375487238168,-8.956715464591983e-05,-0.032481275498867,0.0244146678596746,9.779963493347168
3.2678520679473877,0.0003961492329835,0.0001399205066263,0.0008684899657964,-0.0377912521362304,0.0230091195553553,9.79327392578125
3.271878957748413,-0.0001286994665861,0.0011990470811724,-0.0006290124729275,-0.0354650281369686,0.0393418930470955,9.805116653442385
3.275852680206299,7.662875577807426e-05,0.001527015119791,0.0008758129552006,-0.0389969497919082,0.0408627614378941,9.8302640914917
3.2838470935821533,-3.068242222070694e-05,0.0004540565423667,0.0020491238683462,-0.0354511588811874,0.0298667773604405,9.818473815917969
3.287856101989746,-0.0004576330538839,-0.0002873796038329,0.0001255255192518,-0.0425036288797855,0.0296280682086956,9.776206016540527
3.295870065689087,-0.0006640383508056,0.0024811835028231,-0.0006293812766671,-0.0299944058060646,0.0295939836651098,9.75386905670166
3.303852081298828,-0.0005594412796199,-0.0006058383733034,0.0007627261802554,-0.0287493206560611,0.0331311598420155,9.804642677307127
3.307974100112915,0.0008245264180004,0.0005660448223352,0.0005516381934285,-0.0421644523739814,0.016866246238352,9.816994667053224
3.3119027614593506,-0.0011971497442573,-0.000608742237091,-0.0003008684143424,-0.0575285963714122,0.025492286309601,9.825945854187012
3.3159806728363037,-0.0042994087561964,-0.0017597023397684,0.0019190805032849,-0.0288965087383985,0.0236132442951214,9.845186233520508
3.323845624923706,-0.000885659828782,-0.000712159089744,0.0005515478551387,-0.0387938730418682,0.0278448425233376,9.80896282196045
3.32785964012146,0.0013507371768355,-0.0004980056546628,0.0014083916321396,-0.0396078452467918,0.0114724282175314,9.775714874267578
3.3318965435028076,0.0015667486004531,-0.0005015418864786,-0.0004095048643648,-0.0175647009164094,0.0138167254626762,9.75922679901123
3.3358497619628906,0.002656805794686,0.0010854266583919,-0.0018782797269523,-0.0252443198114633,0.0257720127701771,9.756174087524414
3.339848756790161,0.0002175690606236,-0.0016938834451138,-0.0027379090897738,-0.0396611131727695,0.0382674783468258,9.783063888549805
3.3438377380371094,-0.0004501296207308,0.0010894499719142,-0.0014740615151822,-0.0326158627867698,0.0307489670813095,9.813663482666016
3.3558406829833984,-0.0002564243040978,0.0006594443693757,0.0002245977520942,-0.0416709184646606,0.0206873938441288,9.806930541992188
3.359848737716675,-0.0022625648416578,0.0004532379098236,-0.0002002855762839,-0.044048473238945,0.0383527129888546,9.805030822753906
3.3638336658477783,0.0001770053058862,0.0001444029621779,0.0008680243045091,-0.0329304859042167,0.0449054315686237,9.778182983398438
3.367861747741699,0.0001856978051364,-0.0017915242351591,-0.0007160096429288,-0.0377188697457313,0.0257990565150988,9.76902961730957
3.371877670288086,0.00071443291381,-0.000183776486665,-0.0003998894244432,-0.0348555818200111,0.0224545262753975,9.775230407714844
3.3758347034454346,-0.0011939471587538,-8.501205593347559e-05,-0.000730070285499,-0.0373121798038482,0.0210970938205731,9.802841186523438
3.3838727474212646,-0.000454235356301,0.0003397529944777,-0.0002932688221335,-0.0460265204310417,0.0360511243343365,9.820266723632812
3.3918845653533936,0.0027359477244317,0.0016208649612963,-0.0007235663942992,-0.0455421395599842,0.015368213877083,9.81319808959961
3.3998355865478516,-0.0007614700589329,-0.0006201560609042,-0.0024249986745417,-0.0530773624777793,0.0076731070876133,9.791311264038086
3.407857656478882,-0.0017250271048396,0.0014070677570998,-0.0016936748288571,-0.0300642307847738,0.0305956974625599,9.77992343902588
3.4158477783203125,0.0013633375056087,-6.05550594627857e-05,0.000154023990035,-0.0374000743031501,0.0363023653626453,9.810624122619627
3.419965982437134,0.0005051149055361,-0.0011405344121158,0.0006730705499649,-0.0351792499423027,0.0242622066289198,9.863117218017578
3.4238357543945312,-2.636108547449112e-05,-7.464131340384482e-05,0.000133535824716,-0.0321424156427383,0.0086854249238979,9.81948184967041
3.4278488159179688,-0.0009876512922346,0.0002432377077639,0.0017188768833875,-0.0291731245815753,0.0239372458308947,9.793252944946287
3.4358468055725098,-0.0011873627081513,-0.000185277312994,-0.0001920480281114,-0.0385900400578975,0.0210105292499077,9.77275562286377
3.4398739337921143,0.0012546209618449,0.0004465542733669,-0.0014765514060854,-0.0267435107380151,0.021068872883917,9.785134315490724
3.443847894668579,0.0004037986509501,-8.512288331985491e-05,-0.0014557866379618,-0.0243347119539976,0.0210159607231628,9.778076171875
3.451880693435669,0.0012528109364211,0.0007671252824366,0.0005576545372605,-0.0494600087404251,0.0140156690031302,9.834121704101562
3.4558417797088623,0.0008314992301166,0.0022600688971579,-0.0014741332270205,-0.0518129728734493,0.0264823175966751,9.838251113891602
3.4598357677459717,-0.000548837473616,0.0017239274457097,-0.0016846228390932,-0.0385048165917396,0.0260281153023255,9.850190162658691
3.4638381004333496,-0.0002391538582742,-0.0003965925425291,-0.0001874174922704,-0.0302137900143861,0.0407390743494045,9.814602851867676
3.471890687942505,-3.148522228002548e-05,-0.0014818329364061,0.0014271922409534,-0.0384007133543491,0.0378230959177029,9.810057640075684
3.475841760635376,0.0006158407777547,0.0005617514252662,-0.0001917527988553,-0.0300284791737794,0.0114137791097176,9.773761749267578
3.4799768924713135,0.0015774443745613,-0.0009350436739623,-0.0025330907665193,-0.0285508632659912,0.0213909819722187,9.758652687072754
3.4838428497314453,-2.5747809559106827e-05,-0.0013626213185489,0.000353311188519,-0.0342626571655273,0.0290702804923069,9.7542142868042
3.4878437519073486,-0.0008762551005929,0.0010898760519921,1.9119121134281023e-05,-0.0286828894168138,0.0076751448214066,9.788884162902832
3.4918906688690186,-3.348430618643761e-05,-0.0002728435210883,0.001944288611412,-0.0240924507379531,0.0183794945478451,9.827466011047363
3.4959168434143066,-0.0005783147644251,0.0006344048306345,0.0016020610928535,-0.0328191891312599,0.0399149395525467,9.83201026916504
3.499842882156372,-0.0021634097211062,0.0006647715345025,0.0001193899661302,-0.031540460884571,0.0335320457816136,9.816405296325684
3.503835916519165,-0.0004634605720639,0.0019393139518797,0.0008707176893949,-0.025838915258646,0.0393048897385609,9.803207397460938
3.507920980453491,0.0002993638627231,0.0019318768754601,-0.0008287923410534,-0.0343080982565879,0.026317283511163,9.780341148376465
3.5118937492370605,0.0001791380345821,0.0020343801006674,0.0006599826738238,-0.044936116784811,0.0229475051164639,9.782166481018066
3.5159518718719482,-0.0005557499825954,0.0010821730829775,-8.068699389696135e-05,-0.0414655245840549,0.0299948640167725,9.751441955566406
3.51995587348938,0.0016782875172793,0.0007659350521862,-0.0001796493306756,-0.04102274030447,0.0343613326549541,9.769877433776855
3.5238728523254395,8.182600140571594e-05,-0.0026390580460429,-0.0006014513783156,-0.0473313257098197,0.037305384874345,9.795093536376951
3.5278708934783936,-0.001724500907585,-0.0022139539942145,-0.0022119493223726,-0.0412422083318233,0.0341461375355732,9.821622848510742
3.531881809234619,-0.0027813748456537,-0.002105887979269,-0.0010432028211653,-0.0398967526853084,0.0346449241042149,9.853479385375977
3.535959482192993,-0.001080100890249,-8.780090138316182e-05,-0.0022122003138065,-0.0283567234873771,0.0356351658701908,9.833979606628418
3.5398306846618652,-0.0005533332005143,0.0002340567298233,-0.0007175602950155,-0.0363883599638938,0.0244318880140793,9.802206993103027
3.5438296794891357,0.0007119458168745,-0.0004085656255483,-0.0008100634440779,-0.0233557391911745,0.0181505214422953,9.780390739440918
3.5478408336639404,0.003384287469089,0.000977823510766,0.0004619006067514,-0.0290026497095823,0.0208898633718502,9.756704330444336
3.5518887042999268,0.0002892059274017,0.0021479721181094,0.0001261923462152,-0.0251599252223968,0.0304862558841717,9.745863914489746
3.5558407306671143,-0.0003407066687941,0.0015088003128767,-0.0010433136485517,-0.0286195706576108,0.0276685133576405,9.777578353881836
3.559830665588379,-0.0001336066052317,0.0015110769309103,-8.408166468143482e-05,-0.0262724347412586,0.0243824124336254,9.788469314575195
3.5638318061828613,0.0012552263215184,0.0005693505518138,-0.0005038487724959,-0.0454825833439827,0.0229702703654778,9.802200317382812
3.571871757507324,0.0005094511434435,0.0032231723889708,0.0012916252017021,-0.0622998364269733,0.0197261758148682,9.825484275817873
3.575831651687622,0.0001856535673141,-0.0016964911483228,0.0002529006451368,-0.0402188971638679,0.0211687106639158,9.826807022094728
3.57987380027771,0.0013635526411235,-0.0022055529989302,-0.0001683160662651,-0.0267178304493427,0.0210089497268211,9.778884887695312
3.583932876586914,0.0020014690235257,-0.0004077577032148,-0.0005937293171882,-0.029456166550517,0.0232592187821877,9.74658489227295
3.591876745223999,0.0018942817114293,-0.0003106887452304,-0.0003882278688251,-0.024801418185234,0.0243616551160824,9.771883010864258
3.59982967376709,0.0002999054268002,-0.0017925263382494,-0.0012367595918476,-0.0454187728464603,0.0401838049292576,9.79401397705078
3.607888698577881,7.002102211117744e-05,0.0018302113749086,-7.61300325393679e-05,-0.0612105801701545,0.0225039422512066,9.813518524169922
3.6158316135406494,-0.0007644644938409,-0.0015809941105544,-0.0016636811196804,-0.0325166508555412,0.0315549969673168,9.796899795532228
3.619962453842163,0.0002997615374624,-0.001141136046499,-0.0007084598764777,-0.024305360391736,0.0272677876055252,9.788450241088867
3.6239616870880127,0.000191687606275,-0.0017935107462108,-0.0011278525926172,-0.0272079315036535,0.0171512756496679,9.776631355285645
3.6318955421447754,7.471954450011253e-05,-0.0010374435223639,-0.0003719716332852,-0.0333239659667015,0.0247665382921707,9.773880004882812
3.6398515701293945,0.0013452842831611,0.0002268962562084,-0.0011312142014503,-0.0292409006506204,0.0325051285326492,9.806069374084473
3.6438333988189697,-0.0009697179775685,-0.0020084381103515,-0.003688340075314,-0.0444848462939262,0.0176991354674112,9.803614616394045
3.6479885578155518,0.0013790428638458,0.000239573419094,-0.001023095101118,-0.0529817901551723,0.0243155546486389,9.779233932495115
3.6558315753936768,-0.0001221327111124,0.0001274477690458,-7.644295692443849e-05,-0.0559059008955955,0.0119878202676785,9.796031951904297
3.6598305702209473,-0.0009889227803796,-0.0015756445936858,0.0008905725553631,-0.0311221852898597,0.031585816293956,9.800736427307127
3.663874626159668,0.0005066585727035,0.0003391834907233,-0.000502017326653,-0.0387372337281703,0.032476417720319,9.791728019714355
3.667860269546509,-2.8707552701234818e-05,0.0009826365858316,0.0008900156244635,-0.0411298312246799,0.0215211957693111,9.799338340759276
3.671898603439331,-0.0010908332187682,-0.000617410056293,0.0004528276622295,-0.0446011163294315,0.0259969364851725,9.84064769744873
3.6798362731933594,-0.0008750660344958,-0.0022153020836412,-0.0002805944532155,-0.0282543879002332,0.0196364037692558,9.804583549499512
3.687845468521118,0.0022174217738211,0.0011859317310154,-0.0013434034772217,-0.0457659363746643,0.028585333377124,9.761274337768556
3.69584059715271,0.0011408901773393,0.0008737030439078,-6.698165088891994e-05,-0.0467655286192894,0.0559383109211933,9.783068656921388
3.699829578399658,0.0012484490871429,0.0007680528797209,-6.512552499771128e-05,-0.0434263050556182,0.0453963503241551,9.783032417297363
3.707845687866211,-0.0003419644199311,-0.0005177245475351,-0.0004958449862897,-0.0521864369511604,0.0340240970253956,9.814424514770508
3.7118911743164062,-0.0005530850030481,-0.000832681544125,-0.0014431346207857,-0.0464464463293552,0.0325521007180225,9.811121940612791
3.7160263061523438,-0.0020473406184464,0.0011948719620704,-0.0006117103621363,-0.0555630326271057,0.0219840575009596,9.809647560119627
3.7199931144714355,-0.000234399922192,0.0018252143636345,0.0002303840592503,-0.0327675156295299,0.0183130390942108,9.806782722473145
3.7238411903381348,8.40434804558754e-05,0.0011905403807759,-0.0008177263662219,-0.0095509774982929,0.029663970693947,9.791318893432615
3.7278451919555664,0.0001989044249057,-0.0005187415517866,-0.0016634194180369,-0.0029566949233412,0.0158110633492481,9.80992603302002
3.731870174407959,-0.0010957783088088,-0.0005139126442372,-0.0002820063382387,-0.0195629987865686,0.0296350717544567,9.792281150817873
3.7358412742614746,0.0024353638291358,-0.0002027796581387,-0.0021916343830525,-0.0352843962609767,0.0334049202501785,9.76840114593506
3.7398390769958496,0.0029540858231484,2.063391730189325e-05,0.0001544551923871,-0.0304611213505268,0.0099237002432358,9.761364936828612
3.7478721141815186,0.0019740401767194,-9.261071681976314e-05,0.0003693671897053,-0.0391878560185432,0.0329847596585762,9.809253692626951
3.751889228820801,-2.306094393134117e-05,-0.0012535061687231,-0.0003890949301421,-0.0350388176739215,0.0201570931822073,9.81502628326416
3.7558281421661377,0.0006118989549577,0.0010908576659858,0.0006776973605155,-0.0473283790051937,0.0311245750635874,9.798225402832031
3.759899139404297,0.0001887311227619,0.0004458334296941,2.963840961456293e-05,-0.0393145866692066,0.0474812649190437,9.818603515625
3.767839193344116,0.00135048199445,-0.0007186653092503,0.0018562953919172,-0.0377309024333953,0.0272109508514416,9.786006927490234
3.7719271183013916,0.000932453200221,0.0002402709797024,-0.0003826045431196,-0.034841489046812,0.0233619604259741,9.792291641235352
3.775874137878418,-8.96397978067398e-06,0.0003279405646026,0.0002398518845438,-0.027614090591669,0.013420131057502,9.80258083343506
3.779863119125366,0.0008379840292036,7.3020346462724035e-06,-0.0020885951817035,-0.0238993056118488,0.0171956419944775,9.784174919128418
3.7878363132476807,0.0010416065342724,-0.0005156132392585,-0.0004865173250436,-0.0354426689445972,0.0340326055884373,9.81257152557373
3.791872262954712,0.0001844512298703,-0.0001924405805766,0.00089315418154,-0.0244241617619991,0.0215705148875725,9.81455135345459
3.7998321056365967,-0.0010956192854791,-0.0002985564060509,0.0014198841527104,-0.0219524465501308,0.0128535572439444,9.785154342651367
3.8078582286834717,0.0015775267966091,-0.0007294509559869,-0.0010180361568927,-0.0243560336530208,0.0348599515855324,9.787834167480469
3.8158342838287354,0.0007273033261299,2.1751038730144508e-05,5.0603412091732025e-05,-0.0296194981783628,0.0372789502143871,9.795031547546388
3.8199241161346436,0.000715497881174,-0.0008256514556705,4.6173110604286295e-05,-0.0397227257490158,0.0406783632934105,9.808749198913574
3.8238332271575928,0.0006131567060947,-0.0005143727175891,0.0011061988770961,-0.0406620614230632,0.0268418174237024,9.80691623687744
3.8278441429138184,0.0003053583204746,0.00022395234555,-0.0017638304270803,-0.036820326000452,0.0209980159997952,9.795534133911133
3.8318850994110107,7.987907156348228e-05,-0.0008336580358445,-0.0006942641921341,-0.0323353707790374,0.0261533837765467,9.76229476928711
3.8358452320098877,0.0010446081869304,-0.0005110003985464,0.0002627661451697,-0.0247383378446102,0.0276362858712685,9.76657772064209
3.8406271934509277,0.0006880578584969,0.0005476265214383,-0.0006116488948464,-0.0480536445975303,0.0250381678342831,9.760557174682615
3.845440149307251,0.0012168446555733,-7.28727318346503e-05,-0.0021183551289141,-0.0350460596382617,0.0294127315282833,9.76760959625244
3.849438190460205,0.0001972001045942,6.523448973893968e-06,-0.0012363968417048,-0.0248950626701116,0.0368598252534878,9.805438041687012
3.8534512519836426,-0.0010870820842683,0.001405784394592,-0.0003878301940858,-0.0355311892926692,0.0240327827632439,9.82773494720459
3.857429265975952,0.0001946934498846,0.0012896358966827,-0.0014510187320411,-0.0437086969614028,0.024531662464143,9.843421936035156
3.8614282608032227,0.0012621493078768,0.001072805840522,-0.0008215392008423,-0.0351520143449306,0.0039954856038105,9.84201717376709
3.865567207336426,-0.0001351456157863,0.0008753323927521,0.0014230459928512,-0.0318073369562625,-0.0017289929091918,9.856815338134766
3.869464159011841,-0.0013034790754318,0.0016129249706864,0.0007759891450405,-0.0382480062544345,0.0100925453007233,9.808427810668944
3.873605251312256,-0.0021585749927908,-0.001150241587311,0.001632897183299,-0.0228696223348379,0.0181031357496988,9.782265663146973
3.8774380683898926,0.0010417490266263,0.0023613064549863,3.680866211652727e-05,-0.0343619212508201,0.0247962996363651,9.780309677124023
3.881456136703491,0.0011484799906611,0.0007625198923051,-0.0004837554879486,-0.03103619068861,0.0353670045733463,9.789289474487305
3.885491132736206,9.4724353402853e-05,-0.0023353332653641,-0.0030348901636898,-0.0349185280501842,0.0267656967043888,9.799727439880373
3.8894290924072266,0.0012744534760713,-0.0004180069081485,-0.0006091464310884,-0.0387227945029735,0.0258643068373215,9.803404808044434
3.893477201461792,-0.0003315899521112,-0.0002005766145884,-0.0012381635606288,-0.0479070916771888,0.011022310703994,9.820621490478516
3.897428274154663,-0.0003390258643776,-0.0002012560144066,-0.0010201302357017,-0.0359831899404525,0.0225654430687439,9.826839447021484
3.901440143585205,0.0009329998865723,0.0005485229194164,3.610178828239434e-05,-0.0330930836498737,0.019182274118067,9.811713218688965
3.909503221511841,0.0005040015093982,0.0008682375773787,0.0005771648138761,-0.0170409549027681,0.0237611979246151,9.758021354675291
3.9134280681610107,0.0008143102750182,-0.0001840526238083,-0.0001654820516705,-0.0336643829941749,0.0212678834795963,9.748193740844728
3.9214272499084473,0.0005059358663856,0.00067093456164,-0.0006954064592719,-0.0329485610127449,0.0362776927649986,9.77354907989502
3.9294402599334717,0.0008303383365273,-0.0016809604130685,-0.0010221786797046,-0.0440994948148727,0.0431417338550102,9.828954696655272
3.9334332942962646,0.0002958350814878,-0.002240243833512,-0.0001545464619994,-0.031219333410263,0.0417356230318558,9.831128120422363
3.9374451637268066,-0.0002346881665289,1.6054604202508893e-05,-0.000278590247035,-0.0268725045025348,0.0297298021614563,9.819252014160156
3.9414432048797607,-0.0012996885925531,0.0012912563979625,-0.0002847528085112,-0.0352956801652908,0.0242996104061615,9.777929306030272
3.9495582580566406,-0.0021531251259148,0.0002252683043479,0.0014284616336226,-0.0462782084941864,0.0228286292403948,9.77676773071289
3.953428268432617,0.0006251530721783,0.0009670509025454,0.0007067713886499,-0.0424525998532772,0.022189710289241,9.753791809082031
3.9574291706085205,0.0010308949276804,0.0006286092102527,6.923824548721305e-05,-0.0386213101446628,0.0198991261422646,9.77621841430664
3.961557149887085,0.0016861991025507,0.0014913966879248,0.0002728328108787,-0.0430704765021801,0.0224038865417254,9.808465003967283
3.9654722213745117,-0.0019329783972352,0.0004227976314723,-0.000160964205861,-0.0397823043167591,0.0215711165219557,9.83320426940918
3.969428062438965,-0.0019290775526314,-2.743210643529977e-06,-0.0006936681456863,-0.0292519368231296,0.0214874595403683,9.822303771972656
3.973428249359131,0.0004223003052175,0.0012685065157711,-0.0022826045751571,-0.0382922254502773,0.0099010653793823,9.801992416381836
3.977429151535034,-1.0172370821237564e-05,0.0008461903780698,-0.0015398166142404,-0.0434093624353408,0.0203868038952362,9.779536247253418
3.981431245803833,-0.0001182612031698,-2.074055373668754e-06,-0.0006823372095823,-0.0513767600059509,0.0240550544112932,9.735347747802734
3.9894332885742188,-0.0004350317176431,0.0013799895532429,-0.0015415311791002,-0.0484876446425914,0.0350576005876076,9.731514930725098
3.9974701404571533,-1.5792902559041977e-05,-0.0002112095244228,-0.0002549747005105,-0.0404816940426826,0.0452445559203636,9.76905345916748
4.001438140869141,0.0005118851549923,-0.0009576436132192,0.0009182589128613,-0.023872198536992,0.0381405092775833,9.794266700744627
4.005565166473389,0.001047970727086,-0.0010646861046552,-0.000143258832395,-0.0201949682086706,0.0349148884415638,9.827540397644045
4.009557247161865,0.0010431078262627,-0.0012748232111334,0.0006016474217176,-0.0244612097740173,0.0368111357092869,9.81704044342041
4.013541221618652,-0.0012896417174488,-0.0010702461004257,-0.0005839169025421,-0.0272666104137897,0.0281354486942303,9.800440788269045
4.017548084259033,0.0015801545232534,3.685243427753496e-06,0.0003889137879014,-0.0248398818075656,0.014194665476681,9.790040969848633
4.021456241607666,0.0010423678904771,0.0012811720371246,0.0006993897259235,-0.0399083942174911,0.0044523477554333,9.737305641174316
4.025437116622925,0.0014689415693283,-9.361421689391124e-05,0.0011335900053381,-0.0523371621966362,0.0068477131426346,9.744359016418455
4.029437065124512,0.001582833006978,0.0004250719211995,-0.0003569996915757,-0.0487346649169921,0.0180433038622152,9.788986206054688
4.033437252044678,0.001249433029443,0.0008353777229785,0.0004885727539658,-0.0349745936691761,0.0266679450869572,9.805091857910156
4.037436246871948,0.0015796408988535,8.122064173221636e-06,0.0003900928422808,-0.0239255037158727,0.0319490469992172,9.80095386505127
4.041445255279541,0.0008318657055497,-0.0009702937677502,0.000805590301752,-0.0168736614286899,0.0281060971319687,9.804322242736816
4.04949426651001,0.0013674851506948,0.0007440689951181,-0.0007866267114877,-0.0098723582923412,0.0437819622457039,9.762972831726074
4.053427219390869,-2.0664650946855545e-05,0.0006300620734691,0.0008055195212364,0.0045138276182115,0.0351153984665882,9.75487232208252
4.0574281215667725,0.0007208012975752,0.0005390676669776,0.0012332359328866,-0.0156304705888032,0.040455609560014,9.769161224365234
4.065441131591797,-0.000856667291373,0.0007290658541023,-0.0035634702071547,-0.0181074924767017,0.0323737226426613,9.783893585205078
4.069428205490112,-0.0011859172955155,-0.0010822201147675,-0.0040987599641084,-0.0171225927770137,0.0271302796900284,9.783327102661133
4.073427200317383,-0.0012622140347957,-0.0014125821180641,-0.0027112737298011,-0.0248681679368019,0.0339020080864441,9.810379028320312
4.077446222305298,-0.0004364631604403,0.0007388228550553,-0.0018593375571072,-0.0412009991705417,0.0305923596024525,9.820826530456545
4.081556081771851,-0.0007565689738839,0.0015924852341413,-0.0014371881261467,-0.0273677874356508,0.0330024883151066,9.828486442565918
4.085556268692017,-0.0004462718497961,-0.0001049442216753,0.0007041255012154,-0.0296362079679965,0.0348107591271412,9.798050880432127
4.089438199996948,0.0018929839134216,-0.0020187241025269,0.0015662834048271,-0.0248513706028461,0.0271489545702946,9.796221733093262
4.093538045883179,0.001580421347171,-0.0006325650028884,0.0014587165787816,-0.0347446389496326,0.0251037888228905,9.76731777191162
4.097427129745483,0.0009346832521259,0.0002091820351779,-3.5407952964305905e-05,-0.0328125767409801,0.0299065541476023,9.756715774536133
4.105567216873169,0.001793535426259,-0.0013824263587594,-0.0013071531429886,-0.0554923005402088,0.0219299104064715,9.80987548828125
4.109560251235962,9.089568629860878e-05,0.0012768148444592,-0.0007931869477033,-0.0373434126377105,0.033932998776437,9.815146446228027
4.113447189331055,-0.0013045519590377,0.0015981886535882,0.000154729001224,-0.027774192392826,0.0180766861885798,9.80711841583252
4.121480226516724,-0.0002334672026336,0.0018083634786307,0.0005917400121688,-0.0259808935225009,0.028752274811269,9.837525367736816
4.125455141067505,-0.001074245898053,-0.0010667932219803,-0.0019586379639804,-0.0267221238464117,0.0414951704442513,9.787628173828123
4.129450082778931,-0.0006460356526076,-0.00128173828125,-0.001749119721353,-0.0276334062218666,0.0242547113448393,9.77821159362793
4.1374640464782715,-0.0002310364507138,0.0008519170805811,-0.0001538507640361,-0.0419963672757148,0.0256685689091694,9.78239917755127
4.145439147949219,0.0015846998430788,-0.0004239249974489,-0.0010908604599535,-0.0430603958666324,0.0411206409335148,9.806675910949709
4.149427175521851,0.0012620422057807,-0.0009591691195964,-0.0012053837999701,-0.0446436181664466,0.0397455580532562,9.838811874389648
4.153428077697754,0.0015933914110064,-0.0006405916064977,-0.0009984569624066,-0.0303167104721069,0.0344888493418705,9.841412544250488
4.15742826461792,0.0009369659237563,3.2423995435238617e-06,0.0005986737087368,-0.0254400763660669,0.0306019783020031,9.824244499206545
4.1615681648254395,-0.0001257611438632,-0.0008490332402288,0.0004898766055703,-0.0535662584006786,0.0329454354941856,9.810354232788086
4.165441274642944,0.0011515272781252,0.0002161120064556,0.0002784505486488,-0.0338599346578121,0.0266262553632271,9.781474113464355
4.169429302215576,0.0005038832314312,0.0002192049287259,0.0013436395674943,-0.02189552038908,0.0208213347941649,9.76973819732666
4.173447132110596,0.001148737501353,0.0003290115855634,0.0009069144725799,-0.0222066957503557,0.033249080181123,9.749272346496582
4.181437253952026,-0.0022503165528178,-0.0003305771388113,-0.0013172384351491,-0.0292517878115177,0.0249492395669233,9.83413028717041
4.1894402503967285,-0.0026748531963676,0.0004155351780354,-0.0022903261706233,-0.0392285175621509,0.0262451376765978,9.808990478515623
4.1934332847595215,0.0008399202488362,0.0008580284193158,-0.0017565083689987,-0.040577620267868,0.0281739830970776,9.792433738708496
4.197427272796631,-0.0012921306770294,0.0028619389049708,0.0003717672079801,-0.0328642316162586,0.0169812832027685,9.753161430358888
4.201548099517822,0.0008274321444332,-0.000736101064831,0.0008144248276948,-0.0332495011389255,0.0112057588994514,9.747332572937012
4.2055580615997314,0.0009381151758134,-0.0001055882312357,0.0003879442811012,-0.0370881631970405,0.0198177155107271,9.749725341796877
4.209445238113403,-0.0008635213598608,-0.0007498483173549,-0.00036805216223,-0.0308915954083204,0.0212379954755318,9.76388168334961
4.21343207359314,-0.000151764601469,0.000233297701925,0.0002815211191773,-0.0238175522536039,0.0271256081759941,9.770816802978516
4.217512845993042,0.0017977668903768,0.0003112982958555,-0.0017341976054012,-0.0239339228719472,0.0119094848632824,9.81007194519043
4.2214648723602295,-1.828279346227646e-05,-0.0005339500494301,-0.000145579688251,-0.0359364561736583,0.0162424948066485,9.819530487060549
4.225567817687988,0.000409185886383,-0.0006388751789927,-3.681983798742286e-05,-0.0183194782584905,0.030601028352977,9.831921577453612
4.2294580936431885,0.0011455616913735,-0.0005283765494823,0.0006032790988683,-0.0239851474761962,0.0143319852650177,9.835283279418944
4.233447790145874,0.0017973091453313,0.0002136593684554,-3.509409725666049e-05,-0.0364508405327796,0.0353368334472191,9.817587852478027
4.237579822540283,-0.0002229106612503,-0.0001096245832741,-0.0002594776451587,-0.0262978393584489,0.0391365550458443,9.810486793518066
4.241441011428833,0.0008315895684063,-0.000846087001264,0.0006030052900314,-0.0377356745302677,0.0453184954822075,9.790448188781738
4.249478816986084,0.000196230597794,-0.0003161956556141,-0.0004698298871517,-0.0501162409782409,0.0041458420455467,9.782988548278809
4.253443956375122,8.767656981945038e-05,-0.0019103498198091,0.0009278142824769,-0.0406330227851867,0.0056616179645073,9.803433418273926
4.257431983947754,7.849559187889099e-05,-0.0014810971915721,0.0018788306042551,-0.0254255421459674,0.0263066478073609,9.823822975158691
4.2654290199279785,-0.0015048705972731,0.0014756736345589,-0.0013193157501518,-0.0301672294735908,0.0440067239105713,9.830402374267578
4.26944899559021,-0.000868531409651,-0.0002114698290824,-0.0002582995221018,-0.0415333099663257,0.0247356779873383,9.787643432617188
4.277434825897217,0.0025342814624309,0.0037245999556034,-0.0001495443284511,-0.0356688201427459,0.0255545601248753,9.752057075500488
4.2814648151397705,0.000617166981101,0.0026620803400874,0.0002714842557907,-0.0432905964553356,0.0083290487527859,9.749719619750977
4.2854390144348145,0.0005060001276433,0.0004258397966623,6.927736103534693e-05,-0.0185004286468029,0.0251389518380177,9.763578414916992
4.289428949356079,0.0015817712992429,-0.0005314429290592,-0.0007790056988596,-0.0328161269426345,0.0198652595281612,9.765357971191406
4.293445825576782,0.0007235989905893,-0.0009533367119729,-0.0005626687780022,-0.0472216010093688,0.0094597637653362,9.789471626281738
4.297439813613892,0.0005173734389245,-0.0001103351823985,-0.0015287892892956,-0.0464311465620994,0.0028302185237419,9.814801216125488
4.3054327964782715,0.0009429319761693,0.001596210990101,-0.0012138350866734,-0.0387002862989902,0.0194470826536428,9.784367561340332
4.309551954269409,0.0002954355441033,-0.0007420624606311,0.0004940060898661,-0.0381961241364479,0.0209002029150736,9.785792350769045
4.3134284019470215,-0.0006591309793293,0.0004255613312125,-0.0007924358360469,-0.0275776851922273,0.0280076190829289,9.760639190673828
4.317582368850708,0.0020979521796107,0.000320725608617,-0.0016245562583208,-0.014643371105194,0.0141483508050453,9.75027847290039
4.321427345275879,0.0027358355000615,0.0016023903153836,0.0012347726151347,-0.0126615902408957,0.0311998184770357,9.747252464294434
4.325432300567627,0.002958545461297,0.0007497072219848,0.0008220989257097,-0.0223961304873228,0.0319153591990482,9.784358978271484
4.329578399658203,0.0022122138179838,0.0012826556339859,0.0008145235478878,-0.0392124131321907,0.0291081722825777,9.807146072387695
4.333454370498657,-0.0002421461977064,-9.878491982817636e-05,0.0011285068467259,-0.0335875749588012,0.035896446555854,9.83042335510254
4.337445497512817,-0.001086919568479,0.000642311759293,0.0011283382773399,-0.0445765182375907,0.036800652742387,9.822705268859863
4.341438293457031,0.0007199612446129,0.0014967485330998,0.0012345276772975,-0.0330740138888359,0.0411223433911812,9.822795867919922
4.34544038772583,-0.0006476088892668,-0.001160682644695,0.0005976995453238,-0.0316441543400287,0.0358558893203747,9.814836502075195
4.357442378997803,0.0011552297510206,0.0004234234802424,-0.0012084101326763,-0.034305989742279,0.0208496805280458,9.772520065307615
4.365466356277466,-0.0004414955619722,0.0008509978652,-0.0004668226465582,-0.0334950946271419,0.0405760444700729,9.807135581970217
4.370219469070435,-0.0018812529742717,0.0005356208421289,0.0006443308666348,-0.0346699133515358,0.0246982574462902,9.802769660949709
4.374220371246338,-0.0008698950987309,-0.0021324208937585,-0.0002487273886799,-0.0358744971454143,0.0310006681829702,9.807597160339355
4.3782384395599365,-0.0016024603974074,-0.0009635016322135,-0.0023757135495543,-0.0348722413182258,0.0262815728783619,9.793949127197266
4.3870322704315186,0.0010413089767098,0.0013827397488057,-4.152208566665666e-05,-0.0419486872851848,0.0237076636403811,9.767745971679688
4.395052433013916,0.0025318921543657,0.0007496625185012,0.0007116822525858,-0.0142895840108394,0.0309792980551731,9.787765502929688
4.403060436248779,-0.0004376419819891,-0.0001127305440604,-0.0008867625147104,-0.0273429676890373,0.0148202124983084,9.824337005615234
4.407176494598389,0.0009461250156164,-0.0007488927803933,-0.0023814211599528,-0.0392578206956386,0.0262827072292578,9.810469627380373
4.411027908325195,-0.0004340060986578,0.000951265450567,-0.0028094234876334,-0.0392677299678325,0.0214774534106266,9.821889877319336
4.41513991355896,8.212681859731674e-05,0.0006444286555051,0.0009156558662652,-0.017214398831129,0.0027643255889427,9.800694465637209
4.419065952301025,-0.0024763899855315,0.0007508019916713,0.0013321070000529,-0.039259847253561,0.0071171671152126,9.814854621887209
4.423036813735962,-0.0012993686832487,-0.0005287346430122,0.0004893001168966,-0.01857615634799,0.0266092102974665,9.7825288772583
4.427048683166504,-0.000233890954405,0.0010644439607858,-0.0001513790339231,-0.0095003470778465,0.0405241101980221,9.784929275512695
4.431062936782837,0.0009451201185584,-0.0002103415317833,-0.0009932904504239,-0.0152997821569442,0.0352566465735447,9.786438941955566
4.435038805007935,0.0016835848800837,0.0008510476909577,-0.0012066583149135,-0.0407011993229389,0.030025774613024,9.80666446685791
4.439040899276733,0.0014736498706042,0.001485489308834,-0.0020588524639606,-0.045982863754034,0.0338995009660732,9.816086769104004
4.443019866943359,0.0002009840682148,-0.0007567438296973,-0.002172527834773,-0.042132381349802,0.0324854888021957,9.809982299804688
4.447040796279907,-1.902738586068153e-05,0.0001095035113394,-0.0004630275070667,-0.0277763400226831,0.0214889906346809,9.809110641479492
4.451149940490723,-0.0002240105532109,0.0006325035355985,-0.0021711667068302,-0.0372917875647544,0.0200035125017178,9.805810928344728
4.4590981006622314,-0.0016085330862551,0.0003107250668108,-0.0009868554770946,-0.0304622091352939,0.0303297378122818,9.765814781188965
4.467050075531006,0.0013650865294039,-0.002444100100547,-0.0006640655919909,-0.0410150475800037,0.0265589468181145,9.767727851867676
4.475030899047852,0.0001945788972079,0.0012676338665187,-0.0001397803425788,-0.0315342545509338,0.0194740090519201,9.799493789672852
4.4790198802948,0.0003047240898013,-8.02660360932361e-06,-0.0008805249817669,-0.0502056330442428,0.0309496894478809,9.804142951965332
4.483041763305664,0.0010486226528882,0.0004158797673881,-0.0009833923541009,-0.0473110675811767,0.0367004461586487,9.797874450683594
4.487062692642212,0.0012662797234952,-0.0003319401293992,-0.0018332186155021,-0.0426439493894577,0.0204602852463734,9.8250732421875
4.491032838821411,0.0006211483851075,-0.0002321824431419,0.0004058666527271,-0.0443857498466968,0.0117555893957626,9.794561386108398
4.4950408935546875,-0.0002302462235093,-0.0018241424113512,-0.0001243483275175,-0.0252773128449916,0.0145970042794954,9.786130905151367
4.499030828475952,0.000945113133639,-0.0011854832991957,-0.0001218654215335,-0.0299144573509693,0.0154574066400539,9.758094787597656
4.507048845291138,0.0021152193658053,-1.1917669326066973e-05,-1.7873011529445648e-05,-0.0303454026579856,0.0245239660143864,9.7462739944458
4.511882305145264,0.0029975036159157,0.0014134054072201,0.0009418949484825,-0.0256469435989856,0.0172649081796419,9.746826171875
4.516632318496704,0.0005994155071675,-0.0004722015000879,0.0003144741058349,-0.0266095399856567,0.0129023604094994,9.766552925109863
4.5207130908966064,0.0020049675367772,0.0004123467952013,-0.0001231506466865,-0.0205975919961929,0.0041928216815006,9.815508842468262
4.524624347686768,0.0014771758578717,-0.0002223961055278,0.000614303164184,-0.0296747721731662,0.0161630660295498,9.819841384887695
4.528634309768677,-0.0024668253026902,-0.0010737380944192,0.0010334094986319,-0.0344486087560653,0.0166051164269459,9.81125259399414
4.53262734413147,0.001271940767765,0.0011510415934026,-0.0016208952292799,-0.0261777192354202,0.0241450108587753,9.774697303771973
4.5366291999816895,0.0002089762128889,0.0020046648569405,-0.0017328760586678,-0.0280725732445716,0.0112141296267521,9.77329158782959
4.544626235961914,-0.0005368997808545,0.0013656038790941,-0.0004589632153511,-0.0309604555368423,0.0145482122898113,9.775110244750977
4.5486462116241455,0.0001964578405022,0.0005182670429348,-0.0001312922686338,-0.0381784662604332,0.0280143804848206,9.792638778686523
4.556620359420776,-0.0004376205615699,-0.0016107694245874,-0.0005525946617126,-0.0573894754052162,0.0347895361483109,9.81063461303711
4.560631275177002,-0.0012932836543768,0.0015767542645335,-0.0004579806700348,-0.0392698720097541,0.0247818175703299,9.818835258483888
4.5647642612457275,-0.0032004546374082,0.0006112856790423,-0.0006828340701758,-0.0172481872141361,0.0218835901469004,9.818328857421877
4.572627067565918,-0.0008735400624573,0.002221611328423,-0.0014129928313195,-0.020535172894597,0.0217604748904717,9.79854679107666
4.576619386672974,0.00147359771654,0.0013727978803217,0.000189640559256,-0.0242943111807107,0.024184735491873,9.78659725189209
4.580628395080566,0.0023197429254651,0.0001056604087352,0.0004142085090279,-0.0218771453946828,0.0131616014987242,9.78283405303955
4.584748268127441,0.0028677959926426,8.790567517280568e-05,-0.000863763038069,-0.0262690410017967,0.0174859724938881,9.792276382446287
4.592632293701172,0.0010434426367282,0.0013800128363072,0.0009358935058116,-0.0396522916853427,0.0428805872797978,9.794546127319336
4.600617408752441,-0.0005483685526996,-0.0004298756830394,0.000730063766241,-0.0201381221413612,0.0050879642367374,9.800566673278809
4.608619213104248,0.000499052926898,-0.0001120371744036,0.0015805214643478,-0.0213113203644752,0.0293273963034164,9.751070022583008
4.616627931594849,0.0016721994616091,-0.0003040633164346,-0.0004732487723231,-0.0238454211503267,0.0166862700134527,9.785293579101562
4.6246232986450195,0.0011361017823219,-0.0002129175700247,-0.0009980821050703,-0.0311074405908584,0.0139119662344467,9.803139686584473
4.6286280155181885,0.0012442478910088,-0.001574685331434,-0.0008958396501839,-0.0225777626037597,0.0195833202451479,9.833139419555664
4.632750988006592,0.0002848613075911,-0.002857910003513,0.0013468423858284,-0.0339855104684829,0.0234268531203281,9.809768676757812
4.63662314414978,0.00040083238855,0.0010776394046843,-5.078315734863294e-05,-0.0362099334597587,0.0252210069447767,9.771267890930176
4.64061713218689,0.0003016842529177,0.0003333501517772,-0.0004711607471108,-0.0276428274810314,0.0300450921058666,9.783177375793455
4.6486170291900635,0.00072713335976,0.001172486692667,-0.002708364278078,-0.0237038247287273,0.0299272350966942,9.751864433288574
4.652639150619507,0.0009403335861861,0.0009629940614104,-0.0015387698076665,-0.0304629877209663,0.0185172520577919,9.77278995513916
4.656731128692627,-0.0001387819647789,0.0013004303909838,0.0002713864669203,-0.0372343249619007,0.0070454925298702,9.783645629882812
4.660650014877319,0.0012492295354604,-0.0003090156242251,-0.0001474078744649,-0.0336019098758697,0.0182504598051321,9.829771041870115
4.664616107940674,0.0010390011593699,0.0003258818760514,-0.000681921839714,-0.0493398755788803,0.0297144986689102,9.82723903656006
4.668626070022583,-0.0019469740800559,0.0007569543085992,0.0003675669431686,-0.0445039086043834,0.0248781982809317,9.81210708618164
4.672640085220337,-0.0013064136728644,-0.0006190352141857,-0.00015639513731,-0.0331117026507854,0.0292503684759152,9.823112487792969
4.67661714553833,-0.0018367811571806,-0.0012671072036027,0.0007972382009029,-0.0315402410924434,0.0382085144519817,9.795010566711426
4.680639028549194,-3.4947413951158524e-05,0.000972987152636,0.0012281090021133,-0.0430041067302227,0.0353676602244389,9.801641464233398
4.684617280960083,0.0010323692113161,0.0001063058152794,0.0009291497990489,-0.0516500696539878,0.0273624807596218,9.802181243896484
4.688624143600464,0.0008223624899983,0.0005436120554804,0.000379760749638,-0.0487633980810642,0.0162276290357124,9.801187515258787
4.69270396232605,-0.0011963604483753,-0.00244134478271,-0.0005763145163655,-0.0535294935107231,0.0167049095034611,9.799742698669434
4.696615934371948,-0.0005614315159618,-0.0026514087803661,6.678234785795244e-05,-0.0396882593631744,0.0363241732120525,9.799734115600586
4.700621128082275,-0.0005563227459788,-0.0024435096420347,-0.0011037588119506,-0.022991869598627,0.0353996045887482,9.810269355773926
4.704626083374023,-0.0009842559229582,-0.0008456679061055,0.0002660993486642,-0.0220351051539182,0.0329529196023953,9.808371543884276
4.708770990371704,-0.000993366818875,0.0010788324289023,0.0017559882253408,-0.0439499989151954,0.0329407155513775,9.793094635009766
4.712625503540039,-0.0005512756761163,0.0008524795994162,-0.0003836997784674,-0.0443278960883617,0.0323942303657543,9.775943756103516
4.7206244468688965,0.0011396338231861,-0.0011566774919629,0.0009209355339407,-0.0318745970726013,0.0328327380120766,9.763197898864746
4.724639415740967,0.0013489127159118,0.0001170220784842,0.0019782995805144,-0.0262496657669544,0.0266791339963686,9.786489486694336
4.732638359069824,0.0019990829750895,-0.0005257171578705,-0.0005651977844536,-0.0310723818838596,0.0263668391853582,9.82223415374756
4.736633539199829,0.0009272578172385,-0.0016905348747968,0.0009219720959663,-0.0277648512274026,0.0191417299211037,9.811738967895508
4.740618467330933,-4.085758700966835e-05,-0.0013629961758852,0.0007100077345967,-0.0286236014217138,0.0219524409621965,9.813106536865234
4.7446184158325195,-0.0005507757887244,-0.0011653029359877,-0.0006807358004152,-0.0386375822126865,0.0242797117680323,9.775632858276367
4.748616456985474,-0.0013058651238679,-0.0003151665441691,-0.0001556072384119,-0.0343056619167327,0.0285692177712929,9.775543212890623
4.752625465393066,-0.0003482575993984,-0.0008449051529169,-0.0003634779714047,-0.0443594083189964,0.0290353931486618,9.778383255004885
4.756611347198486,0.0005068606697022,-0.0005252212285995,-0.0003607780672609,-0.0499943234026432,0.0428542196750652,9.749350547790527
4.764612436294556,0.0023097568191587,8.018687367439345e-06,0.000604635104537,-0.0286885648965835,0.020041409879924,9.803643226623535
4.768617391586304,-0.0019423966296017,-0.0010711229406297,0.0004792250692844,-0.0310658533126115,0.0057098977267754,9.806940078735352
4.772660493850708,-0.000669136410579,0.0005421959795057,0.0006961906328797,-0.0316327363252639,0.0076673589646828,9.820290565490724
4.776613473892212,0.0006161076016724,0.0005358001217246,-0.0011086957529187,-0.0359697751700878,0.026365263387562,9.828292846679688
4.780616283416748,-0.0002360744401812,-0.0011638989672064,-0.0005729156546294,-0.030202466994524,0.0239440556615603,9.82263469696045
4.78862738609314,0.0008337027393281,0.0003256238996982,-0.0019628489390015,-0.0318901687860488,0.0175172276794922,9.75312042236328
4.792618274688721,0.000713241752237,-0.0010538385249674,0.0001771952956914,-0.0280421115458011,0.0208585225045692,9.762812614440918
4.8006134033203125,-0.0023724846541881,-0.0008414266631007,0.0005876682698726,-0.0300820656120777,0.0200138725340378,9.792235374450684
4.808623552322388,-0.0002360446378588,0.0009658294729888,-0.0003645713441073,-0.0224847346544265,0.0209924317896378,9.806032180786133
4.817482948303223,-0.0007420897018164,0.0024905623868107,0.0004612253978848,-0.0278657097369432,0.0119660831987869,9.794721603393556
4.82141900062561,-0.0013101217336952,-0.0009493879042565,0.0008061239495873,-0.020877081900835,0.0232599005103123,9.764721870422363
4.825423002243042,-3.613391891121864e-05,-0.0022241324186325,-0.0007762792520225,-0.0256524868309497,0.042426396161319,9.760283470153809
4.829442977905273,-0.0019287930335849,0.0006344495341181,-0.0032485532574355,-0.024696584790945,0.0433786585927021,9.765096664428713
4.8334338665008545,-0.0009893460664898,0.0005327207036316,-0.0015419754199683,-0.0209162645041942,0.0363257899880421,9.776528358459473
4.841430902481079,8.154986426234245e-05,0.0008544283919036,-0.0008970526978373,-0.0215734392404556,0.0229602269828331,9.816473007202148
4.845428943634033,0.0023060459643602,-9.67467203736304e-05,0.0011346833780407,-0.0355205610394477,0.0153850540518772,9.838306427001951
4.853429079055786,0.001146825030446,-0.0005232207477092,0.0008169542998075,-0.0309184826910495,0.0147456694394362,9.787552833557127
4.861430883407593,-0.0005610990338027,-0.0019099996425211,-3.864336758851981e-05,-0.0252844095230102,-0.0092004425823676,9.788082122802734
4.86542010307312,0.00018369872123,-0.0019074948504567,0.0007127011194825,-0.0267378278076648,0.018573470413686,9.796009063720703
4.873456954956055,0.0024182531051337,0.0001083347015082,-2.708658576011659e-05,-0.036331545561552,0.0497131943702709,9.80402374267578
4.877435922622681,0.0018844767473638,-0.0002125422470271,-0.0005645453929901,-0.0339833013713359,0.0473471060395252,9.818266868591309
4.885422945022583,0.0027313246391713,-0.0005193352699279,0.0019984496757388,-0.0254527684301137,0.0292505510151398,9.83591365814209
4.8894360065460205,0.0028476542793214,0.001174421980977,-0.0005664685741066,-0.0387063547968864,0.0272268764674675,9.80214500427246
4.8974432945251465,-0.00013845320791,0.0012857811525464,0.0008061742410063,-0.045377567410469,0.0434603579342377,9.793987274169922
4.901421070098877,-0.0010994633194059,0.0004333234392106,0.0011253543198108,-0.0448213294148445,0.0409909486770641,9.773127555847168
4.909437894821167,0.0013619679957628,-0.0021348404698073,-0.0025817099958658,-0.0274958815425634,0.0346884168684494,9.747564315795898
4.9134202003479,-0.0005531727802008,0.0001945896074175,-0.0009025041945278,-0.0237500853836536,0.0361615754663956,9.763155937194824
4.91744327545166,0.0004977141506969,0.0007577273063361,0.0009163478389382,-0.0204998161643743,0.0319566018879425,9.79075527191162
4.921419143676758,-0.0002385727129876,0.0009571332484483,0.0008178940042853,-0.0296745747327804,0.038227926939727,9.814390182495115
4.925422191619873,0.000931529328227,-0.0001085326075553,-0.0002436581999063,-0.0382231213152408,0.0242940112948429,9.798693656921388
4.933425188064575,0.0013698008842766,-0.0009663389064371,-0.0004348065704107,-0.05645602196455,0.0372952558100235,9.834234237670898
4.937427282333374,8.360249921679497e-05,0.0007378584705293,-0.0011032386682927,-0.0228574518114328,0.038073129951955,9.768810272216797
4.945431232452393,-0.0006631661672145,0.0004157531075179,0.0003785155713558,-0.0338981300592422,0.0501861087977898,9.78945541381836
4.949420213699341,-0.001092470716685,0.0002215695567429,0.0008071046322584,-0.0297096669673919,0.0258235409855854,9.818188667297363
4.953418254852295,0.0001658168621361,-0.0015923385508358,0.0018915925174951,-0.0388231836259365,0.0177112258970749,9.838839530944824
4.957418203353882,8.239457383751869e-05,0.0004202318377792,-0.000139526091516,-0.0438111014664173,0.0092581845819962,9.878504753112791
4.961546182632446,-1.5819445252418518e-05,0.0010538292117416,-0.0022657960653305,-0.0456052422523498,0.0187283605337155,9.850919723510742
4.965428113937378,0.000720826908946,0.0006340476684272,-0.0003516213037073,-0.0282363686710596,0.0252994094043982,9.811092376708984
