timestamp,angular_velocity.x,angular_velocity.y,angular_velocity.z,linear_acceleration.x,linear_acceleration.y,linear_acceleration.z
0.24879789352416992,0.0034906584769487,0.0,0.0034906584769487,0.127486452460289,-9.169217109680176,0.107873149216175
0.2537853717803955,0.0017453292384743,0.0034906584769487,0.0,0.1470997482538223,-9.169217109680176,0.127486452460289
0.2587738037109375,0.0,0.0,0.0017453292384743,0.1470997482538223,-9.208444595336914,0.127486452460289
0.2637612819671631,0.0,0.0,0.0,0.1470997482538223,-9.169217109680176,0.1667130440473556
0.26874876022338867,0.0,0.0017453292384743,0.0,0.1470997482538223,-9.149603843688965,0.127486452460289
0.27373695373535156,0.0,0.0017453292384743,-0.0017453292384743,0.1470997482538223,-9.149603843688965,0.127486452460289
0.27872467041015625,0.0034906584769487,0.0,0.0,0.107873149216175,-9.149603843688965,0.1863263398408889
0.28371286392211914,0.0,0.0,0.0017453292384743,0.1470997482538223,-9.169217109680176,0.1667130440473556
0.2887003421783447,0.0,0.0,0.0017453292384743,0.127486452460289,-9.208444595336914,0.1470997482538223
0.2936887741088867,0.0,0.0069813169538974,-0.0034906584769487,0.1470997482538223,-9.228057861328123,0.1667130440473556
0.2986762523651123,0.0,0.0,0.0,0.1470997482538223,-9.169217109680176,0.107873149216175
0.3036634922027588,0.0017453292384743,0.0034906584769487,0.0,0.1470997482538223,-9.169217109680176,0.107873149216175
0.3086519241333008,0.0034906584769487,0.0017453292384743,0.0034906584769487,0.1470997482538223,-9.129990577697754,0.1667130440473556
0.31363940238952637,0.0,0.0017453292384743,0.0,0.1470997482538223,-9.149603843688965,0.1470997482538223
0.31862759590148926,0.0,0.0,0.0,0.1667130440473556,-9.169217109680176,0.127486452460289
0.32361507415771484,0.0,0.0,0.0,0.127486452460289,-9.188830375671388,0.107873149216175
0.32860326766967773,0.0,0.0034906584769487,-0.0017453292384743,0.107873149216175,-9.208444595336914,0.127486452460289
0.3335902690887451,0.0034906584769487,0.0052359877154231,0.0,0.127486452460289,-9.208444595336914,0.107873149216175
0.3385777473449707,0.0,0.0017453292384743,0.0,0.127486452460289,-9.169217109680176,0.127486452460289
0.3435661792755127,0.0,0.0,0.0,0.1667130440473556,-9.129990577697754,0.1863263398408889
0.3485534191131592,0.0052359877154231,0.0017453292384743,0.0017453292384743,0.1470997482538223,-9.149603843688965,0.1470997482538223
0.35354161262512207,0.0,0.0034906584769487,-0.0017453292384743,0.1470997482538223,-9.149603843688965,0.1470997482538223
0.35852909088134766,0.0,0.0,0.0034906584769487,0.127486452460289,-9.228057861328123,0.127486452460289
0.36351728439331055,0.0052359877154231,0.0,0.0,0.107873149216175,-9.228057861328123,0.107873149216175
0.36850428581237793,0.0,0.0034906584769487,-0.0017453292384743,0.1470997482538223,-9.228057861328123,0.107873149216175
0.3734920024871826,-0.0017453292384743,0.0017453292384743,0.0,0.1470997482538223,-9.188830375671388,0.127486452460289
0.3784799575805664,0.0017453292384743,0.0,0.0,0.127486452460289,-9.129990577697754,0.127486452460289
0.3834671974182129,0.0017453292384743,0.0,0.0,0.1470997482538223,-9.129990577697754,0.1470997482538223
0.3884556293487549,0.0017453292384743,0.0069813169538974,0.0,0.127486452460289,-9.169217109680176,0.1470997482538223
0.39344263076782227,0.0,0.0017453292384743,0.0,0.127486452460289,-9.188830375671388,0.1470997482538223
0.39843082427978516,-0.0017453292384743,0.0034906584769487,0.0,0.1667130440473556,-9.247671127319336,0.127486452460289
0.40341782569885254,0.0,0.0,0.0,0.1470997482538223,-9.208444595336914,0.1667130440473556
0.40840625762939453,0.0017453292384743,0.0,0.0,0.127486452460289,-9.169217109680176,0.1470997482538223
0.4133932590484619,0.0,0.0017453292384743,-0.0017453292384743,0.1470997482538223,-9.149603843688965,0.1667130440473556
0.4183816909790039,0.0,0.0,0.0,0.107873149216175,-9.149603843688965,0.127486452460289
0.4233686923980713,0.0,0.0034906584769487,0.0,0.1667130440473556,-9.149603843688965,0.1667130440473556
0.4283559322357178,0.0,0.0,0.0,0.1667130440473556,-9.169217109680176,0.1470997482538223
0.43334388732910156,0.0,0.0069813169538974,0.0,0.1470997482538223,-9.188830375671388,0.0882598459720611
0.43833112716674805,0.0017453292384743,0.0017453292384743,0.0017453292384743,0.127486452460289,-9.208444595336914,0.107873149216175
0.44331836700439453,0.0,0.0,0.0,0.107873149216175,-9.188830375671388,0.1470997482538223
0.4483063220977783,0.0,0.0017453292384743,0.0,0.127486452460289,-9.149603843688965,0.1470997482538223
0.4532930850982666,0.0,0.0052359877154231,0.0,0.1470997482538223,-9.129990577697754,0.1667130440473556
0.4582815170288086,0.0017453292384743,0.0017453292384743,0.0017453292384743,0.127486452460289,-9.129990577697754,0.1470997482538223
0.4632682800292969,0.0,0.0034906584769487,-0.0017453292384743,0.1470997482538223,-9.208444595336914,0.1470997482538223
0.46825647354125977,0.0,0.0,0.0034906584769487,0.1470997482538223,-9.208444595336914,0.1470997482538223
0.47324347496032715,0.0,0.0,0.0,0.127486452460289,-9.208444595336914,0.127486452460289
0.47823071479797363,0.0,0.0017453292384743,0.0,0.107873149216175,-9.169217109680176,0.127486452460289
0.4832186698913574,0.0,0.0,0.0,0.1667130440473556,-9.169217109680176,0.1470997482538223
0.4882056713104248,0.0,0.0069813169538974,-0.0017453292384743,0.1470997482538223,-9.188830375671388,0.127486452460289
0.4931926727294922,-0.0017453292384743,0.0017453292384743,-0.0017453292384743,0.1667130440473556,-9.129990577697754,0.127486452460289
0.4981808662414551,0.0,0.0034906584769487,0.0,0.127486452460289,-9.149603843688965,0.1667130440473556
0.5031688213348389,0.0034906584769487,0.0034906584769487,0.0,0.1470997482538223,-9.208444595336914,0.107873149216175
0.5081558227539062,0.0,0.0017453292384743,0.0,0.127486452460289,-9.247671127319336,0.107873149216175
0.5131428241729736,0.0,0.0017453292384743,0.0,0.127486452460289,-9.208444595336914,0.1470997482538223
0.5181307792663574,-0.0017453292384743,0.0017453292384743,0.0,0.107873149216175,-9.149603843688965,0.1470997482538223
0.5231175422668457,-0.0017453292384743,0.0034906584769487,0.0,0.127486452460289,-9.149603843688965,0.1667130440473556
0.5281057357788086,0.0,0.0034906584769487,0.0,0.127486452460289,-9.149603843688965,0.1470997482538223
0.5330924987792969,0.0,0.0017453292384743,0.0034906584769487,0.127486452460289,-9.188830375671388,0.1667130440473556
0.5380804538726807,0.0,0.0034906584769487,0.0,0.127486452460289,-9.169217109680176,0.1470997482538223
0.5430676937103271,0.0,0.0034906584769487,0.0017453292384743,0.1470997482538223,-9.188830375671388,0.127486452460289
0.5480544567108154,0.0017453292384743,0.0034906584769487,0.0,0.127486452460289,-9.169217109680176,0.1470997482538223
0.5530421733856201,0.0017453292384743,0.0,0.0,0.127486452460289,-9.169217109680176,0.1470997482538223
0.5580291748046875,0.0,0.0017453292384743,0.0017453292384743,0.127486452460289,-9.169217109680176,0.1470997482538223
0.5630171298980713,-0.0017453292384743,0.0034906584769487,-0.0034906584769487,0.1470997482538223,-9.169217109680176,0.1667130440473556
0.5680038928985596,-0.0017453292384743,0.0052359877154231,0.0,0.1470997482538223,-9.169217109680176,0.1863263398408889
0.5729920864105225,0.0,0.0,0.0,0.1470997482538223,-9.169217109680176,0.127486452460289
0.5779788494110107,0.0,0.0034906584769487,0.0,0.1470997482538223,-9.188830375671388,0.127486452460289
0.5829665660858154,0.0017453292384743,0.0034906584769487,0.0,0.107873149216175,-9.208444595336914,0.1470997482538223
0.5879530906677246,-0.0017453292384743,0.0017453292384743,-0.0069813169538974,0.1470997482538223,-9.208444595336914,0.127486452460289
0.592940092086792,0.0,0.0017453292384743,0.0017453292384743,0.127486452460289,-9.188830375671388,0.127486452460289
0.5979280471801758,0.0,0.0034906584769487,0.0,0.127486452460289,-9.169217109680176,0.1470997482538223
0.6029148101806641,0.0,0.0052359877154231,0.0,0.127486452460289,-9.169217109680176,0.1470997482538223
0.6079015731811523,0.0,0.0052359877154231,0.0,0.127486452460289,-9.169217109680176,0.1470997482538223
0.612889289855957,0.0,0.0,0.0052359877154231,0.1470997482538223,-9.188830375671388,0.1667130440473556
0.6178762912750244,-0.0017453292384743,0.0017453292384743,0.0017453292384743,0.127486452460289,-9.149603843688965,0.1470997482538223
0.6228640079498291,0.0017453292384743,0.0,0.0,0.127486452460289,-9.169217109680176,0.1470997482538223
0.6278507709503174,0.0,0.0,0.0,0.1470997482538223,-9.188830375671388,0.127486452460289
0.6328384876251221,0.0,0.0034906584769487,0.0,0.1470997482538223,-9.188830375671388,0.127486452460289
0.6378252506256104,0.0,0.0017453292384743,0.0,0.1470997482538223,-9.149603843688965,0.1863263398408889
0.642812967300415,0.0,0.0017453292384743,0.0034906584769487,0.127486452460289,-9.169217109680176,0.1470997482538223
0.6477994918823242,-0.0034906584769487,0.0,0.0017453292384743,0.1470997482538223,-9.208444595336914,0.1470997482538223
0.6527876853942871,0.0034906584769487,0.0034906584769487,-0.0052359877154231,0.127486452460289,-9.228057861328123,0.127486452460289
0.6577742099761963,0.0017453292384743,0.0,0.0,0.127486452460289,-9.188830375671388,0.107873149216175
0.6627609729766846,0.0,0.0034906584769487,-0.0017453292384743,0.1470997482538223,-9.188830375671388,0.127486452460289
0.6677484512329102,0.0,0.0034906584769487,-0.0017453292384743,0.1470997482538223,-9.169217109680176,0.1667130440473556
0.6727352142333984,0.0017453292384743,0.0,0.0,0.127486452460289,-9.169217109680176,0.1470997482538223
0.677722692489624,0.0,0.0,0.0,0.127486452460289,-9.169217109680176,0.127486452460289
0.6827096939086914,-0.0017453292384743,0.0052359877154231,0.0,0.127486452460289,-9.208444595336914,0.1470997482538223
0.6876962184906006,0.0,0.0,0.0,0.1470997482538223,-9.169217109680176,0.1667130440473556
0.6926836967468262,0.0,0.0017453292384743,0.0,0.127486452460289,-9.188830375671388,0.1667130440473556
0.6976704597473145,0.0,0.0017453292384743,0.0,0.127486452460289,-9.149603843688965,0.127486452460289
0.7026581764221191,0.0,0.0017453292384743,-0.0017453292384743,0.1470997482538223,-9.169217109680176,0.1470997482538223
0.7076447010040283,0.0052359877154231,0.0017453292384743,0.0,0.1470997482538223,-9.149603843688965,0.1470997482538223
0.712632417678833,0.0,0.0052359877154231,-0.0017453292384743,0.127486452460289,-9.149603843688965,0.1470997482538223
0.7176189422607422,-0.0017453292384743,0.0,0.0052359877154231,0.1470997482538223,-9.169217109680176,0.1667130440473556
0.7226054668426514,0.0,0.0,0.0,0.127486452460289,-9.188830375671388,0.1470997482538223
0.727592945098877,0.0,0.0017453292384743,0.0,0.107873149216175,-9.188830375671388,0.127486452460289
0.7325794696807861,0.0017453292384743,0.0,0.0,0.127486452460289,-9.208444595336914,0.127486452460289
0.7375671863555908,0.0017453292384743,0.0052359877154231,0.0,0.127486452460289,-9.208444595336914,0.127486452460289
0.7425534725189209,0.0,0.0,0.0,0.127486452460289,-9.149603843688965,0.1667130440473556
0.7475411891937256,0.0052359877154231,0.0,-0.0034906584769487,0.127486452460289,-9.169217109680176,0.1470997482538223
0.7525274753570557,0.0017453292384743,0.0052359877154231,0.0,0.1470997482538223,-9.169217109680176,0.127486452460289
0.757514476776123,-0.0017453292384743,0.0,-0.0017453292384743,0.1470997482538223,-9.169217109680176,0.1667130440473556
0.7625019550323486,0.0,0.0052359877154231,0.0,0.1470997482538223,-9.208444595336914,0.1470997482538223
0.7674882411956787,0.0017453292384743,0.0034906584769487,0.0,0.107873149216175,-9.188830375671388,0.1470997482538223
0.7724754810333252,0.0,0.0017453292384743,0.0034906584769487,0.0882598459720611,-9.169217109680176,0.127486452460289
0.7774624824523926,0.0,0.0017453292384743,0.0,0.1470997482538223,-9.149603843688965,0.1667130440473556
0.78244948387146,0.0017453292384743,0.0017453292384743,0.0,0.127486452460289,-9.129990577697754,0.127486452460289
0.7874362468719482,0.0,0.0,0.0,0.1470997482538223,-9.149603843688965,0.127486452460289
0.7924227714538574,0.0,0.0034906584769487,0.0,0.127486452460289,-9.188830375671388,0.127486452460289
0.797410249710083,0.0017453292384743,0.0017453292384743,0.0,0.127486452460289,-9.228057861328123,0.127486452460289
0.8023967742919922,0.0017453292384743,0.0,0.0,0.127486452460289,-9.188830375671388,0.1470997482538223
0.8073840141296387,0.0,0.0,0.0,0.1470997482538223,-9.169217109680176,0.1667130440473556
0.8123703002929688,0.0017453292384743,0.0052359877154231,0.0,0.107873149216175,-9.169217109680176,0.1667130440473556
0.8173577785491943,0.0,0.0017453292384743,0.0,0.127486452460289,-9.149603843688965,0.1470997482538223
0.8223443031311035,0.0,0.0017453292384743,-0.0017453292384743,0.127486452460289,-9.149603843688965,0.127486452460289
0.8273305892944336,0.0017453292384743,0.0,0.0,0.1470997482538223,-9.169217109680176,0.127486452460289
0.8323180675506592,0.0017453292384743,0.0017453292384743,0.0,0.127486452460289,-9.149603843688965,0.127486452460289
0.8373043537139893,0.0017453292384743,0.0,0.0017453292384743,0.1470997482538223,-9.188830375671388,0.1470997482538223
0.8422918319702148,0.0,0.0017453292384743,-0.0034906584769487,0.1470997482538223,-9.188830375671388,0.1470997482538223
0.8472781181335449,0.0,0.0069813169538974,0.0,0.1667130440473556,-9.169217109680176,0.1470997482538223
0.852264404296875,-0.0017453292384743,0.0034906584769487,0.0,0.1470997482538223,-9.169217109680176,0.1667130440473556
0.8572516441345215,0.0,0.0034906584769487,0.0,0.107873149216175,-9.149603843688965,0.1667130440473556
0.8622379302978516,0.0,0.0,-0.0034906584769487,0.127486452460289,-9.169217109680176,0.1667130440473556
0.8672254085540771,0.0,0.0,0.0017453292384743,0.1470997482538223,-9.169217109680176,0.127486452460289
0.8722116947174072,0.0017453292384743,0.0017453292384743,0.0,0.127486452460289,-9.208444595336914,0.107873149216175
0.8771989345550537,0.0,0.0,0.0,0.107873149216175,-9.188830375671388,0.1470997482538223
0.8821852207183838,-0.0034906584769487,0.0052359877154231,-0.0034906584769487,0.1470997482538223,-9.149603843688965,0.1667130440473556
0.8871726989746094,0.0034906584769487,0.0,0.0,0.1667130440473556,-9.169217109680176,0.1470997482538223
0.8921589851379395,0.0,0.0,-0.0017453292384743,0.127486452460289,-9.149603843688965,0.1470997482538223
0.8971450328826904,0.0034906584769487,-0.0017453292384743,0.0,0.127486452460289,-9.169217109680176,0.1470997482538223
0.9021322727203369,0.0,0.0052359877154231,0.0,0.127486452460289,-9.188830375671388,0.1470997482538223
0.907118558883667,0.0017453292384743,-0.0017453292384743,0.0017453292384743,0.127486452460289,-9.188830375671388,0.1667130440473556
0.9121060371398926,0.0,0.0034906584769487,0.0,0.1470997482538223,-9.188830375671388,0.127486452460289
0.9170920848846436,0.0017453292384743,0.0017453292384743,-0.0034906584769487,0.1470997482538223,-9.188830375671388,0.127486452460289
0.9220790863037109,0.0,0.0017453292384743,0.0,0.127486452460289,-9.129990577697754,0.1470997482538223
0.927065372467041,0.0,0.0,0.0,0.0882598459720611,-9.149603843688965,0.1667130440473556
0.9320526123046875,0.0,0.0017453292384743,-0.0017453292384743,0.127486452460289,-9.149603843688965,0.1667130440473556
0.9370388984680176,0.0,0.0069813169538974,0.0,0.107873149216175,-9.169217109680176,0.1470997482538223
0.9420251846313477,0.0017453292384743,0.0052359877154231,0.0,0.1470997482538223,-9.188830375671388,0.1470997482538223
0.947012186050415,0.0,0.0,-0.0017453292384743,0.1470997482538223,-9.208444595336914,0.1470997482538223
0.951998233795166,0.0,0.0,-0.0017453292384743,0.1667130440473556,-9.208444595336914,0.1470997482538223
0.9569854736328125,-0.0017453292384743,0.0,0.0052359877154231,0.1470997482538223,-9.169217109680176,0.127486452460289
0.9619717597961426,0.0,0.0052359877154231,0.0,0.1667130440473556,-9.129990577697754,0.1667130440473556
0.9669578075408936,0.0,0.0,0.0,0.127486452460289,-9.129990577697754,0.1470997482538223
0.9719448089599609,0.0,0.0017453292384743,0.0,0.127486452460289,-9.169217109680176,0.127486452460289
0.9769308567047119,0.0,0.0,0.0,0.127486452460289,-9.169217109680176,0.127486452460289
0.9819180965423584,0.0,0.0034906584769487,0.0,0.127486452460289,-9.188830375671388,0.127486452460289
0.9869043827056885,0.0,0.0034906584769487,-0.0034906584769487,0.1470997482538223,-9.169217109680176,0.1470997482538223
0.9918913841247559,0.0017453292384743,0.0,0.0,0.107873149216175,-9.208444595336914,0.1470997482538223
0.9968774318695068,0.0,0.0017453292384743,-0.0017453292384743,0.127486452460289,-9.129990577697754,0.1667130440473556
1.0018632411956787,0.0017453292384743,0.0,0.0,0.1470997482538223,-9.110377311706545,0.1470997482538223
1.006850242614746,0.0034906584769487,0.0,0.0017453292384743,0.127486452460289,-9.169217109680176,0.107873149216175
1.011836290359497,0.0,0.0017453292384743,0.0,0.107873149216175,-9.169217109680176,0.127486452460289
1.0168235301971436,0.0017453292384743,0.0017453292384743,-0.0017453292384743,0.107873149216175,-9.188830375671388,0.1470997482538223
1.0218095779418945,0.0,0.0034906584769487,0.0017453292384743,0.107873149216175,-9.169217109680176,0.1470997482538223
1.026796579360962,0.0,0.0017453292384743,0.0017453292384743,0.127486452460289,-9.149603843688965,0.1667130440473556
1.0317823886871338,0.0,-0.0034906584769487,0.0,0.127486452460289,-9.169217109680176,0.1470997482538223
1.0367684364318848,0.0034906584769487,0.0,0.0052359877154231,0.127486452460289,-9.129990577697754,0.1667130440473556
1.0417556762695312,0.0017453292384743,0.0017453292384743,-0.0017453292384743,0.127486452460289,-9.149603843688965,0.1667130440473556
1.0467414855957031,0.0,0.0052359877154231,0.0,0.1667130440473556,-9.169217109680176,0.107873149216175
1.0517284870147705,0.0,0.0052359877154231,-0.0034906584769487,0.127486452460289,-9.228057861328123,0.127486452460289
1.0567142963409424,0.0,0.0017453292384743,0.0,0.127486452460289,-9.208444595336914,0.1470997482538223
1.0617012977600098,0.0,0.0034906584769487,0.0,0.127486452460289,-9.188830375671388,0.127486452460289
1.0666873455047607,0.0,0.0,0.0017453292384743,0.127486452460289,-9.188830375671388,0.1470997482538223
1.0716733932495117,0.0,0.0034906584769487,-0.0034906584769487,0.1470997482538223,-9.149603843688965,0.127486452460289
1.07666015625,-0.0017453292384743,0.0069813169538974,0.0017453292384743,0.127486452460289,-9.169217109680176,0.127486452460289
1.0816459655761719,0.0,0.0034906584769487,-0.0034906584769487,0.127486452460289,-9.169217109680176,0.127486452460289
1.0866329669952393,-0.0017453292384743,0.0034906584769487,0.0017453292384743,0.1470997482538223,-9.169217109680176,0.107873149216175
1.0916187763214111,0.0017453292384743,0.0034906584769487,0.0,0.127486452460289,-9.228057861328123,0.127486452460289
1.0966057777404785,0.0017453292384743,0.0,0.0,0.127486452460289,-9.188830375671388,0.127486452460289
1.1015915870666504,0.0,0.0017453292384743,0.0017453292384743,0.127486452460289,-9.188830375671388,0.127486452460289
1.1065773963928223,0.0,0.0052359877154231,0.0,0.1470997482538223,-9.129990577697754,0.127486452460289
1.1115643978118896,0.0,0.0,0.0,0.127486452460289,-9.129990577697754,0.1470997482538223
1.1165502071380615,0.0,0.0,0.0,0.1470997482538223,-9.149603843688965,0.1667130440473556
1.1215369701385498,0.0,0.0017453292384743,0.0,0.1470997482538223,-9.169217109680176,0.127486452460289
1.1265230178833008,0.0017453292384743,0.0,0.0017453292384743,0.127486452460289,-9.208444595336914,0.1470997482538223
1.131509780883789,0.0017453292384743,0.0017453292384743,0.0,0.127486452460289,-9.208444595336914,0.127486452460289
1.136495590209961,0.0017453292384743,0.0,0.0,0.127486452460289,-9.208444595336914,0.127486452460289
1.1414821147918701,0.0017453292384743,0.0,0.0,0.1470997482538223,-9.149603843688965,0.127486452460289
1.146467924118042,0.0,0.0,0.0,0.1470997482538223,-9.149603843688965,0.127486452460289
1.1514534950256348,0.0,0.0,0.0,0.127486452460289,-9.129990577697754,0.1470997482538223
1.1564407348632812,0.0034906584769487,0.0017453292384743,0.0,0.127486452460289,-9.169217109680176,0.1863263398408889
1.1614265441894531,0.0,0.0034906584769487,0.0,0.127486452460289,-9.188830375671388,0.127486452460289
1.1664130687713623,0.0,0.0017453292384743,0.0,0.127486452460289,-9.208444595336914,0.1667130440473556
1.1713988780975342,0.0,0.0017453292384743,0.0,0.1470997482538223,-9.208444595336914,0.1667130440473556
1.176384449005127,0.0017453292384743,0.0034906584769487,0.0,0.127486452460289,-9.149603843688965,0.1667130440473556
1.1813712120056152,0.0017453292384743,0.0017453292384743,0.0,0.127486452460289,-9.090764045715332,0.1863263398408889
1.1863572597503662,0.0017453292384743,0.0017453292384743,-0.0017453292384743,0.1470997482538223,-9.169217109680176,0.127486452460289
1.1913437843322754,0.0017453292384743,0.0017453292384743,0.0,0.1470997482538223,-9.208444595336914,0.1667130440473556
1.1963293552398682,0.0017453292384743,0.0,0.0034906584769487,0.1470997482538223,-9.208444595336914,0.1470997482538223
1.2013161182403564,0.0,0.0,0.0,0.127486452460289,-9.228057861328123,0.1470997482538223
1.2063016891479492,0.0,0.0017453292384743,0.0,0.127486452460289,-9.228057861328123,0.1470997482538223
1.2112884521484375,-0.0017453292384743,0.0034906584769487,-0.0034906584769487,0.1470997482538223,-9.208444595336914,0.1470997482538223
1.2162742614746094,0.0,0.0052359877154231,0.0017453292384743,0.107873149216175,-9.149603843688965,0.127486452460289
1.2212607860565186,0.0034906584769487,0.0034906584769487,0.0,0.127486452460289,-9.090764045715332,0.1470997482538223
1.2262463569641113,0.0017453292384743,0.0017453292384743,0.0017453292384743,0.1470997482538223,-9.149603843688965,0.1667130440473556
1.2312321662902832,0.0034906584769487,0.0052359877154231,0.0017453292384743,0.1470997482538223,-9.208444595336914,0.1470997482538223
1.2362186908721924,0.0,0.0034906584769487,-0.0017453292384743,0.127486452460289,-9.208444595336914,0.107873149216175
1.2412059307098389,0.0017453292384743,0.0,0.0017453292384743,0.127486452460289,-9.228057861328123,0.107873149216175
1.24619460105896,0.0,0.0017453292384743,-0.0017453292384743,0.127486452460289,-9.188830375671388,0.1470997482538223
1.2511820793151855,0.0,0.0,0.0017453292384743,0.107873149216175,-9.129990577697754,0.107873149216175
1.256169080734253,0.0,0.0,-0.0034906584769487,0.127486452460289,-9.129990577697754,0.1667130440473556
1.2611579895019531,0.0,-0.0017453292384743,0.0017453292384743,0.127486452460289,-9.169217109680176,0.1470997482538223
1.2661452293395996,-0.0017453292384743,0.0034906584769487,0.0,0.127486452460289,-9.208444595336914,0.1470997482538223
1.2711334228515625,0.0,0.0052359877154231,0.0,0.1470997482538223,-9.228057861328123,0.127486452460289
1.2761211395263672,0.0,0.0017453292384743,0.0,0.127486452460289,-9.188830375671388,0.1470997482538223
1.2811083793640137,0.0,0.0052359877154231,0.0,0.127486452460289,-9.149603843688965,0.1667130440473556
1.2860965728759766,0.0,0.0,0.0,0.1470997482538223,-9.110377311706545,0.127486452460289
1.2910842895507812,0.0,0.0,0.0,0.1470997482538223,-9.169217109680176,0.1470997482538223
1.2960724830627441,0.0,0.0017453292384743,0.0,0.1470997482538223,-9.149603843688965,0.127486452460289
1.3010594844818115,0.0052359877154231,0.0,-0.0034906584769487,0.127486452460289,-9.208444595336914,0.1470997482538223
1.3060481548309326,0.0034906584769487,-0.0017453292384743,0.0017453292384743,0.1470997482538223,-9.208444595336914,0.127486452460289
1.311035394668579,0.0,0.0034906584769487,0.0,0.1470997482538223,-9.228057861328123,0.127486452460289
1.316023826599121,0.0017453292384743,0.0017453292384743,0.0017453292384743,0.107873149216175,-9.188830375671388,0.1470997482538223
1.3210110664367676,0.0,0.0034906584769487,0.0,0.107873149216175,-9.149603843688965,0.127486452460289
1.3259994983673096,0.0,0.0017453292384743,0.0,0.1470997482538223,-9.169217109680176,0.1667130440473556
1.330986499786377,0.0,0.0052359877154231,0.0,0.1470997482538223,-9.169217109680176,0.1470997482538223
1.3359737396240234,0.0,0.0017453292384743,-0.0017453292384743,0.1470997482538223,-9.169217109680176,0.127486452460289
1.3409621715545654,0.0017453292384743,0.0017453292384743,0.0,0.107873149216175,-9.228057861328123,0.1470997482538223
1.345949411392212,0.0034906584769487,0.0,0.0,0.127486452460289,-9.228057861328123,0.1470997482538223
1.3509368896484375,0.0,0.0052359877154231,0.0,0.1470997482538223,-9.188830375671388,0.1470997482538223
1.3559250831604004,0.0017453292384743,0.0,0.0,0.127486452460289,-9.169217109680176,0.127486452460289
1.3609132766723633,0.0,0.0052359877154231,0.0,0.127486452460289,-9.169217109680176,0.1667130440473556
1.3659002780914307,0.0,0.0034906584769487,0.0,0.1470997482538223,-9.149603843688965,0.1470997482538223
1.3708877563476562,0.0,0.0034906584769487,0.0,0.1470997482538223,-9.169217109680176,0.127486452460289
1.375875473022461,0.0,0.0,0.0,0.1470997482538223,-9.169217109680176,0.1470997482538223
1.3808629512786865,0.0034906584769487,0.0034906584769487,0.0,0.1470997482538223,-9.169217109680176,0.0882598459720611
1.3858511447906494,0.0,0.0,0.0017453292384743,0.127486452460289,-9.188830375671388,0.127486452460289
1.390838384628296,0.0,0.0069813169538974,-0.0017453292384743,0.1667130440473556,-9.169217109680176,0.107873149216175
1.3958253860473633,0.0,0.0017453292384743,-0.0017453292384743,0.1470997482538223,-9.149603843688965,0.127486452460289
1.4008135795593262,0.0017453292384743,-0.0017453292384743,0.0,0.107873149216175,-9.149603843688965,0.1470997482538223
1.4058008193969727,0.0,0.0017453292384743,-0.0017453292384743,0.1667130440473556,-9.149603843688965,0.1470997482538223
1.4107887744903564,0.0,0.0017453292384743,-0.0017453292384743,0.1667130440473556,-9.169217109680176,0.1470997482538223
1.415776014328003,0.0,0.0,0.0,0.107873149216175,-9.169217109680176,0.107873149216175
1.4207642078399658,0.0017453292384743,0.0,0.0017453292384743,0.127486452460289,-9.188830375671388,0.107873149216175
1.4257512092590332,0.0,0.0,0.0034906584769487,0.127486452460289,-9.208444595336914,0.127486452460289
1.4307382106781006,0.0034906584769487,0.0034906584769487,0.0,0.127486452460289,-9.208444595336914,0.127486452460289
1.4357268810272217,0.0,-0.0017453292384743,0.0,0.127486452460289,-9.149603843688965,0.1470997482538223
1.44071364402771,0.0,0.0069813169538974,0.0,0.107873149216175,-9.149603843688965,0.1470997482538223
1.4457015991210938,0.0,0.0052359877154231,0.0017453292384743,0.1470997482538223,-9.169217109680176,0.1470997482538223
1.4506886005401611,0.0,0.0069813169538974,0.0,0.127486452460289,-9.169217109680176,0.107873149216175
1.455676794052124,0.0,0.0034906584769487,0.0,0.1470997482538223,-9.169217109680176,0.1470997482538223
1.4606637954711914,0.0034906584769487,0.0,0.0052359877154231,0.1667130440473556,-9.208444595336914,0.1470997482538223
1.4656517505645752,0.0,0.0,-0.0034906584769487,0.127486452460289,-9.169217109680176,0.1667130440473556
1.4706387519836426,0.0034906584769487,0.0,0.0017453292384743,0.1470997482538223,-9.149603843688965,0.127486452460289
1.47562575340271,0.0,0.0034906584769487,0.0,0.127486452460289,-9.149603843688965,0.1667130440473556
1.4806134700775146,0.0,0.0052359877154231,0.0,0.127486452460289,-9.169217109680176,0.107873149216175
1.4856007099151611,0.0017453292384743,0.0017453292384743,-0.0017453292384743,0.1667130440473556,-9.169217109680176,0.1470997482538223
1.490588665008545,0.0017453292384743,0.0034906584769487,0.0,0.107873149216175,-9.188830375671388,0.1470997482538223
1.4955756664276123,0.0,0.0052359877154231,0.0017453292384743,0.1470997482538223,-9.188830375671388,0.1470997482538223
1.5005626678466797,0.0,0.0034906584769487,-0.0017453292384743,0.1470997482538223,-9.169217109680176,0.1667130440473556
1.5055506229400635,0.0,0.0034906584769487,0.0,0.127486452460289,-9.149603843688965,0.1667130440473556
1.5105376243591309,0.0017453292384743,0.0017453292384743,-0.0017453292384743,0.1470997482538223,-9.169217109680176,0.127486452460289
1.5155253410339355,0.0017453292384743,0.0,0.0,0.1470997482538223,-9.129990577697754,0.1667130440473556
1.520512342453003,0.0,0.0052359877154231,0.0,0.127486452460289,-9.149603843688965,0.1470997482538223
1.5255002975463867,0.0017453292384743,0.0,0.0,0.127486452460289,-9.169217109680176,0.1470997482538223
1.530487298965454,0.0,0.0052359877154231,0.0,0.127486452460289,-9.188830375671388,0.107873149216175
1.5354740619659424,0.0,0.0034906584769487,0.0017453292384743,0.1470997482538223,-9.188830375671388,0.127486452460289
1.540461778640747,0.0,0.0017453292384743,0.0,0.127486452460289,-9.169217109680176,0.1470997482538223
1.5454490184783936,0.0,0.0017453292384743,0.0,0.127486452460289,-9.188830375671388,0.127486452460289
1.5504367351531982,0.0,-0.0017453292384743,0.0,0.127486452460289,-9.149603843688965,0.1863263398408889
1.5554234981536865,0.0,-0.0017453292384743,0.0,0.1470997482538223,-9.149603843688965,0.1470997482538223
1.5604116916656494,0.0,0.0052359877154231,-0.0017453292384743,0.1470997482538223,-9.208444595336914,0.1470997482538223
1.5653982162475586,0.0017453292384743,0.0,0.0,0.127486452460289,-9.208444595336914,0.1470997482538223
1.5703861713409424,0.0,0.0069813169538974,-0.0017453292384743,0.127486452460289,-9.228057861328123,0.1470997482538223
1.5753729343414307,0.0,0.0052359877154231,0.0,0.127486452460289,-9.188830375671388,0.1470997482538223
1.580359935760498,0.0,0.0,0.0,0.107873149216175,-9.149603843688965,0.1470997482538223
1.5853476524353027,0.0,0.0,0.0,0.1470997482538223,-9.149603843688965,0.1667130440473556
1.590334415435791,0.0017453292384743,0.0017453292384743,0.0034906584769487,0.1470997482538223,-9.149603843688965,0.1470997482538223
1.5953218936920166,0.0,0.0034906584769487,-0.0017453292384743,0.1470997482538223,-9.188830375671388,0.1470997482538223
1.600308895111084,0.0,0.0052359877154231,0.0,0.1470997482538223,-9.208444595336914,0.1667130440473556
1.6052966117858887,0.0,0.0034906584769487,0.0,0.107873149216175,-9.188830375671388,0.127486452460289
1.610283374786377,0.0,0.0,0.0017453292384743,0.127486452460289,-9.169217109680176,0.127486452460289
1.6152710914611816,0.0017453292384743,0.0017453292384743,0.0,0.127486452460289,-9.149603843688965,0.1667130440473556
1.620258092880249,-0.0017453292384743,0.0069813169538974,0.0,0.1470997482538223,-9.129990577697754,0.127486452460289
1.6252446174621582,0.0034906584769487,0.0,0.0,0.1470997482538223,-9.129990577697754,0.127486452460289
1.630232334136963,0.0,0.0052359877154231,0.0,0.127486452460289,-9.228057861328123,0.127486452460289
1.635218858718872,-0.0017453292384743,0.0017453292384743,0.0,0.127486452460289,-9.228057861328123,0.127486452460289
1.6402060985565186,0.0034906584769487,0.0034906584769487,-0.0017453292384743,0.1470997482538223,-9.208444595336914,0.107873149216175
1.645193338394165,0.0052359877154231,0.0017453292384743,0.0017453292384743,0.1470997482538223,-9.188830375671388,0.1470997482538223
1.6501801013946533,0.0,0.0,0.0017453292384743,0.127486452460289,-9.149603843688965,0.1470997482538223
1.655167818069458,0.0,0.0017453292384743,0.0,0.1470997482538223,-9.149603843688965,0.1470997482538223
1.6601543426513672,0.0,0.0,0.0034906584769487,0.1470997482538223,-9.169217109680176,0.1470997482538223
1.6651420593261719,0.0,0.0,-0.0034906584769487,0.127486452460289,-9.169217109680176,0.107873149216175
1.670128583908081,0.0,-0.0017453292384743,0.0017453292384743,0.127486452460289,-9.188830375671388,0.1470997482538223
1.6751163005828857,0.0034906584769487,0.0,-0.0017453292384743,0.1470997482538223,-9.188830375671388,0.1470997482538223
1.6801033020019531,0.0,0.0034906584769487,0.0,0.127486452460289,-9.188830375671388,0.1470997482538223
1.6850895881652832,0.0017453292384743,0.0017453292384743,0.0,0.1470997482538223,-9.188830375671388,0.127486452460289
1.6900770664215088,0.0017453292384743,0.0,0.0,0.1470997482538223,-9.169217109680176,0.1470997482538223
1.695063591003418,0.0,0.0,0.0,0.127486452460289,-9.129990577697754,0.1667130440473556
1.7000510692596436,0.0017453292384743,0.0034906584769487,-0.0034906584769487,0.1470997482538223,-9.169217109680176,0.127486452460289
1.7050378322601318,-0.0017453292384743,0.0034906584769487,0.0,0.1470997482538223,-9.188830375671388,0.127486452460289
1.7100250720977783,0.0,0.0017453292384743,-0.0017453292384743,0.1470997482538223,-9.208444595336914,0.0882598459720611
1.7150120735168457,0.0,0.0,0.0,0.127486452460289,-9.208444595336914,0.127486452460289
1.7199985980987549,0.0,0.0034906584769487,0.0,0.127486452460289,-9.188830375671388,0.1470997482538223
1.7249860763549805,0.0,0.0052359877154231,0.0,0.1470997482538223,-9.149603843688965,0.1667130440473556
1.7299726009368896,0.0,0.0017453292384743,-0.0034906584769487,0.1470997482538223,-9.129990577697754,0.1470997482538223
1.7349600791931152,0.0,0.0017453292384743,0.0,0.1470997482538223,-9.169217109680176,0.107873149216175
1.7399466037750244,0.0017453292384743,0.0,0.0,0.1470997482538223,-9.169217109680176,0.1470997482538223
1.74493408203125,0.0017453292384743,0.0,0.0,0.1470997482538223,-9.208444595336914,0.1470997482538223
1.7499206066131592,0.0017453292384743,0.0,0.0,0.127486452460289,-9.208444595336914,0.127486452460289
1.7549068927764893,-0.0017453292384743,0.0069813169538974,0.0,0.127486452460289,-9.208444595336914,0.1470997482538223
1.759894609451294,0.0017453292384743,0.0,0.0,0.127486452460289,-9.149603843688965,0.1667130440473556
1.7648811340332031,0.0,0.0,0.0,0.1667130440473556,-9.149603843688965,0.127486452460289
1.7698683738708496,0.0017453292384743,0.0017453292384743,0.0,0.127486452460289,-9.149603843688965,0.127486452460289
1.7748548984527588,0.0,0.0,0.0,0.127486452460289,-9.149603843688965,0.1470997482538223
1.7798423767089844,0.0,0.0,0.0017453292384743,0.127486452460289,-9.188830375671388,0.127486452460289
1.7848289012908936,0.0052359877154231,0.0034906584769487,0.0,0.127486452460289,-9.188830375671388,0.127486452460289
1.78981614112854,0.0,0.0,0.0,0.1470997482538223,-9.188830375671388,0.1470997482538223
1.7948024272918701,0.0,-0.0017453292384743,0.0017453292384743,0.127486452460289,-9.188830375671388,0.1470997482538223
1.7997889518737793,0.0,0.0034906584769487,0.0,0.1470997482538223,-9.149603843688965,0.107873149216175
1.8047764301300049,0.0017453292384743,0.0052359877154231,0.0034906584769487,0.1667130440473556,-9.149603843688965,0.1470997482538223
1.809762716293335,0.0017453292384743,0.0017453292384743,-0.0034906584769487,0.127486452460289,-9.169217109680176,0.1470997482538223
1.8147499561309814,0.0,0.0052359877154231,0.0,0.1470997482538223,-9.188830375671388,0.1667130440473556
1.8197362422943115,0.0,0.0,-0.0017453292384743,0.1470997482538223,-9.208444595336914,0.1470997482538223
1.8247227668762207,0.0,0.0017453292384743,0.0,0.107873149216175,-9.188830375671388,0.1667130440473556
1.8297102451324463,0.0,0.0052359877154231,-0.0017453292384743,0.107873149216175,-9.149603843688965,0.107873149216175
1.8346962928771973,0.0,0.0,0.0,0.1470997482538223,-9.169217109680176,0.127486452460289
1.8396837711334229,0.0017453292384743,0.0,0.0,0.1470997482538223,-9.129990577697754,0.1470997482538223
1.844670057296753,0.0,0.0017453292384743,0.0017453292384743,0.127486452460289,-9.169217109680176,0.127486452460289
1.8496575355529785,0.0,0.0034906584769487,-0.0034906584769487,0.1667130440473556,-9.149603843688965,0.1470997482538223
1.8546435832977295,0.0,0.0034906584769487,0.0,0.1470997482538223,-9.188830375671388,0.1470997482538223
1.859630823135376,0.0,0.0,-0.0052359877154231,0.107873149216175,-9.188830375671388,0.127486452460289
1.864617109298706,0.0,0.0034906584769487,0.0,0.127486452460289,-9.188830375671388,0.1470997482538223
1.8696033954620361,0.0,0.0,0.0,0.127486452460289,-9.169217109680176,0.1863263398408889
1.8745908737182617,0.0017453292384743,0.0,0.0017453292384743,0.1470997482538223,-9.149603843688965,0.1667130440473556
1.8795766830444336,0.0,0.0,-0.0034906584769487,0.1470997482538223,-9.169217109680176,0.1470997482538223
1.8845641613006592,0.0017453292384743,0.0034906584769487,0.0,0.127486452460289,-9.188830375671388,0.127486452460289
1.8895502090454102,0.0017453292384743,0.0,0.0034906584769487,0.127486452460289,-9.169217109680176,0.127486452460289
1.8945364952087402,0.0017453292384743,0.0,-0.0052359877154231,0.127486452460289,-9.208444595336914,0.1470997482538223
1.8995237350463867,0.0017453292384743,0.0034906584769487,0.0,0.1470997482538223,-9.188830375671388,0.127486452460289
1.9045100212097168,0.0,0.0017453292384743,0.0,0.107873149216175,-9.129990577697754,0.127486452460289
1.9094970226287842,0.0017453292384743,-0.0017453292384743,0.0,0.107873149216175,-9.149603843688965,0.1470997482538223
1.9144830703735352,0.0034906584769487,0.0034906584769487,0.0,0.1667130440473556,-9.149603843688965,0.127486452460289
1.9194705486297607,0.0,0.0,0.0,0.127486452460289,-9.169217109680176,0.1470997482538223
1.9244568347930908,0.0,0.0052359877154231,0.0,0.1470997482538223,-9.208444595336914,0.1470997482538223
1.9294428825378418,0.0,0.0052359877154231,0.0,0.1470997482538223,-9.208444595336914,0.107873149216175
1.9344298839569092,0.0,0.0069813169538974,0.0,0.127486452460289,-9.188830375671388,0.1470997482538223
1.9394159317016602,0.0,0.0,-0.0017453292384743,0.1470997482538223,-9.149603843688965,0.127486452460289
1.9444026947021484,0.0017453292384743,0.0,0.0052359877154231,0.1470997482538223,-9.129990577697754,0.1470997482538223
1.9493896961212158,0.0017453292384743,-0.0017453292384743,-0.0017453292384743,0.107873149216175,-9.110377311706545,0.127486452460289
1.954376459121704,0.0,-0.0017453292384743,0.0,0.1470997482538223,-9.169217109680176,0.127486452460289
1.959362268447876,0.0,0.0069813169538974,0.0,0.107873149216175,-9.208444595336914,0.107873149216175
1.9643495082855225,0.0017453292384743,0.0034906584769487,0.0,0.1470997482538223,-9.208444595336914,0.127486452460289
1.9693355560302734,-0.0017453292384743,0.0034906584769487,0.0,0.127486452460289,-9.169217109680176,0.1470997482538223
1.97432279586792,0.0,0.0034906584769487,0.0,0.107873149216175,-9.169217109680176,0.1667130440473556
1.979308843612671,0.0017453292384743,0.0052359877154231,0.0,0.1470997482538223,-9.110377311706545,0.1667130440473556
1.9842948913574219,0.0,0.0,0.0017453292384743,0.127486452460289,-9.129990577697754,0.1667130440473556
1.9892816543579102,0.0,0.0034906584769487,0.0,0.127486452460289,-9.149603843688965,0.127486452460289
1.9942677021026611,0.0,0.0034906584769487,-0.0017453292384743,0.127486452460289,-9.169217109680176,0.127486452460289
1.9992549419403076,0.0017453292384743,0.0017453292384743,0.0017453292384743,0.107873149216175,-9.188830375671388,0.127486452460289
2.0042409896850586,0.0,0.0,0.0,0.127486452460289,-9.188830375671388,0.127486452460289
2.009227752685547,0.0,0.0,0.0,0.107873149216175,-9.188830375671388,0.127486452460289
2.014213800430298,0.0,0.0034906584769487,-0.0017453292384743,0.1470997482538223,-9.149603843688965,0.1470997482538223
2.0191996097564697,-0.0034906584769487,0.0052359877154231,-0.0017453292384743,0.1470997482538223,-9.129990577697754,0.1667130440473556
2.024186849594116,0.0017453292384743,0.0052359877154231,0.0,0.127486452460289,-9.129990577697754,0.1470997482538223
2.029172897338867,0.0,0.0052359877154231,-0.0034906584769487,0.127486452460289,-9.169217109680176,0.2059396505355835
2.0341596603393555,0.0,0.0,-0.0017453292384743,0.127486452460289,-9.228057861328123,0.0882598459720611
2.0391454696655273,0.0,0.0017453292384743,0.0,0.127486452460289,-9.228057861328123,0.0882598459720611
2.0441315174102783,0.0,0.0,0.0,0.127486452460289,-9.188830375671388,0.127486452460289
2.0491182804107666,0.0017453292384743,0.0,0.0017453292384743,0.1470997482538223,-9.169217109680176,0.127486452460289
2.0541043281555176,0.0,0.0,0.0017453292384743,0.1470997482538223,-9.149603843688965,0.1667130440473556
2.059091091156006,0.0034906584769487,0.0,0.0,0.127486452460289,-9.129990577697754,0.1667130440473556
2.064077138900757,0.0017453292384743,0.0,0.0,0.127486452460289,-9.149603843688965,0.1470997482538223
2.069063901901245,0.0034906584769487,0.0,-0.0017453292384743,0.1470997482538223,-9.188830375671388,0.127486452460289
2.074049472808838,0.0017453292384743,0.0017453292384743,0.0017453292384743,0.1470997482538223,-9.208444595336914,0.127486452460289
2.0790369510650635,0.0,0.0034906584769487,-0.0017453292384743,0.127486452460289,-9.208444595336914,0.1470997482538223
2.0840227603912354,0.0017453292384743,0.0017453292384743,0.0,0.127486452460289,-9.188830375671388,0.1667130440473556
2.0890085697174072,0.0,0.0,0.0,0.1470997482538223,-9.169217109680176,0.107873149216175
2.0939950942993164,0.0,0.0,0.0,0.1470997482538223,-9.169217109680176,0.107873149216175
2.0989811420440674,-0.0017453292384743,0.0,0.0,0.1470997482538223,-9.169217109680176,0.107873149216175
2.1039679050445557,0.0,0.0017453292384743,-0.0017453292384743,0.1470997482538223,-9.129990577697754,0.107873149216175
2.1089534759521484,0.0,0.0017453292384743,0.0,0.127486452460289,-9.169217109680176,0.127486452460289
2.1139395236968994,0.0017453292384743,0.0034906584769487,-0.0017453292384743,0.127486452460289,-9.208444595336914,0.1470997482538223
2.1189262866973877,0.0,0.0,0.0,0.127486452460289,-9.149603843688965,0.107873149216175
2.1239120960235596,0.0,0.0034906584769487,0.0,0.127486452460289,-9.149603843688965,0.127486452460289
2.128898859024048,0.0017453292384743,0.0,0.0,0.1470997482538223,-9.149603843688965,0.1667130440473556
2.1338844299316406,0.0017453292384743,0.0,0.0,0.1470997482538223,-9.149603843688965,0.1667130440473556
2.1388702392578125,0.0034906584769487,0.0,0.0,0.127486452460289,-9.169217109680176,0.1470997482538223
2.14385724067688,0.0,0.0,0.0,0.127486452460289,-9.169217109680176,0.1470997482538223
2.148843765258789,0.0017453292384743,0.0,0.0017453292384743,0.127486452460289,-9.169217109680176,0.1470997482538223
2.153829574584961,0.0017453292384743,0.0,0.0,0.1470997482538223,-9.169217109680176,0.1667130440473556
2.1588151454925537,0.0,0.0052359877154231,-0.0017453292384743,0.1470997482538223,-9.129990577697754,0.127486452460289
2.163801908493042,0.0017453292384743,0.0017453292384743,-0.0017453292384743,0.127486452460289,-9.149603843688965,0.107873149216175
2.1687874794006348,0.0,0.0,0.0,0.1667130440473556,-9.188830375671388,0.1470997482538223
2.173774242401123,0.0034906584769487,0.0034906584769487,0.0017453292384743,0.1667130440473556,-9.188830375671388,0.1470997482538223
2.178760051727295,0.0,0.0017453292384743,-0.0017453292384743,0.127486452460289,-9.208444595336914,0.1470997482538223
2.183746576309204,0.0,0.0,0.0,0.127486452460289,-9.188830375671388,0.1470997482538223
2.188732147216797,0.0,0.0052359877154231,0.0017453292384743,0.127486452460289,-9.188830375671388,0.1470997482538223
2.1937179565429688,0.0,0.0034906584769487,0.0,0.1470997482538223,-9.149603843688965,0.1667130440473556
2.198704481124878,0.0,0.0017453292384743,0.0,0.107873149216175,-9.169217109680176,0.1470997482538223
2.2036900520324707,0.0,0.0034906584769487,0.0,0.127486452460289,-9.169217109680176,0.1667130440473556
2.208676815032959,0.0017453292384743,0.0017453292384743,-0.0034906584769487,0.127486452460289,-9.169217109680176,0.1667130440473556
2.2136623859405518,0.0,0.0,0.0,0.127486452460289,-9.169217109680176,0.107873149216175
2.218648672103882,0.0017453292384743,0.0069813169538974,0.0017453292384743,0.1470997482538223,-9.188830375671388,0.107873149216175
2.2236344814300537,0.0,0.0,-0.0017453292384743,0.1470997482538223,-9.208444595336914,0.127486452460289
2.2286200523376465,0.0,0.0034906584769487,0.0,0.127486452460289,-9.129990577697754,0.127486452460289
2.2336065769195557,0.0,0.0,0.0017453292384743,0.127486452460289,-9.129990577697754,0.127486452460289
2.2386066913604736,0.0,0.0,0.0,0.1470997482538223,-9.169217109680176,0.1470997482538223
2.2436087131500244,0.0,0.0087266461923718,0.0,0.1470997482538223,-9.169217109680176,0.1470997482538223
2.2486095428466797,-0.0017453292384743,0.0034906584769487,0.0,0.1470997482538223,-9.188830375671388,0.107873149216175
2.2536118030548096,0.0,0.0,0.0,0.1470997482538223,-9.188830375671388,0.1667130440473556
2.258612871170044,0.0,0.0017453292384743,-0.0017453292384743,0.1470997482538223,-9.208444595336914,0.127486452460289
2.2636139392852783,0.0,0.0017453292384743,0.0,0.107873149216175,-9.169217109680176,0.127486452460289
2.268615961074829,0.0,0.0052359877154231,0.0,0.107873149216175,-9.169217109680176,0.107873149216175
2.2736172676086426,0.0017453292384743,0.0,0.0,0.1470997482538223,-9.110377311706545,0.127486452460289
2.2786192893981934,0.0034906584769487,0.0017453292384743,-0.0017453292384743,0.1470997482538223,-9.129990577697754,0.1470997482538223
2.2836203575134277,0.0,0.0052359877154231,0.0017453292384743,0.1470997482538223,-9.169217109680176,0.127486452460289
2.2886226177215576,0.0,0.0034906584769487,0.0,0.1470997482538223,-9.169217109680176,0.107873149216175
2.293623685836792,0.0052359877154231,0.0017453292384743,-0.0017453292384743,0.127486452460289,-9.188830375671388,0.1667130440473556
2.2986249923706055,0.0,0.0,0.0,0.1863263398408889,-9.188830375671388,0.127486452460289
2.3036272525787354,-0.0017453292384743,0.0052359877154231,-0.0034906584769487,0.1863263398408889,-9.188830375671388,0.127486452460289
2.308628559112549,0.0,0.0017453292384743,0.0,0.127486452460289,-9.110377311706545,0.1470997482538223
2.3136308193206787,0.0017453292384743,0.0,-0.0017453292384743,0.1470997482538223,-9.169217109680176,0.127486452460289
2.318632125854492,0.0,0.0017453292384743,0.0,0.127486452460289,-9.169217109680176,0.127486452460289
2.323634386062622,0.0,0.0052359877154231,-0.0034906584769487,0.127486452460289,-9.208444595336914,0.1667130440473556
2.3286356925964355,-0.0017453292384743,0.0052359877154231,0.0,0.107873149216175,-9.188830375671388,0.1667130440473556
2.3336381912231445,-0.0034906584769487,0.0,0.0,0.127486452460289,-9.208444595336914,0.1470997482538223
2.338639497756958,0.0017453292384743,0.0017453292384743,0.0,0.107873149216175,-9.188830375671388,0.1470997482538223
2.3436408042907715,0.0,0.0017453292384743,0.0,0.1470997482538223,-9.169217109680176,0.1667130440473556
2.3486433029174805,0.0,0.0017453292384743,0.0,0.1470997482538223,-9.149603843688965,0.1470997482538223
2.353644609451294,0.0,0.0017453292384743,-0.0017453292384743,0.1667130440473556,-9.169217109680176,0.1667130440473556
2.358646869659424,0.0034906584769487,0.0069813169538974,-0.0017453292384743,0.1470997482538223,-9.149603843688965,0.1470997482538223
2.3636484146118164,0.0,0.0,0.0034906584769487,0.0882598459720611,-9.208444595336914,0.1667130440473556
2.3686506748199463,0.0,0.0034906584769487,0.0,0.127486452460289,-9.188830375671388,0.127486452460289
2.373652219772339,0.0017453292384743,0.0,0.0,0.127486452460289,-9.169217109680176,0.1470997482538223
2.3786540031433105,0.0,0.0034906584769487,0.0,0.1470997482538223,-9.149603843688965,0.1470997482538223
2.3836565017700195,0.0,0.0034906584769487,-0.0017453292384743,0.1470997482538223,-9.149603843688965,0.1470997482538223
2.388658046722412,0.0017453292384743,0.0,0.0,0.127486452460289,-9.169217109680176,0.1667130440473556
2.393660545349121,0.0017453292384743,0.0,0.0,0.1470997482538223,-9.169217109680176,0.1470997482538223
2.3986620903015137,0.0017453292384743,0.0017453292384743,-0.0017453292384743,0.127486452460289,-9.208444595336914,0.127486452460289
2.4036648273468018,0.0,0.0,0.0017453292384743,0.127486452460289,-9.208444595336914,0.127486452460289
2.4086661338806152,0.0,0.0,0.0,0.127486452460289,-9.188830375671388,0.1470997482538223
2.4136688709259033,0.0,0.0052359877154231,0.0,0.1470997482538223,-9.188830375671388,0.107873149216175
2.418670892715454,0.0,0.0,0.0017453292384743,0.107873149216175,-9.169217109680176,0.1470997482538223
2.4236724376678467,0.0,0.0017453292384743,0.0,0.127486452460289,-9.169217109680176,0.1470997482538223
2.4286746978759766,0.0,0.0052359877154231,0.0,0.1470997482538223,-9.169217109680176,0.127486452460289
2.4336764812469482,0.0017453292384743,0.0017453292384743,0.0,0.1470997482538223,-9.169217109680176,0.1667130440473556
2.4386796951293945,0.0,0.0034906584769487,0.0,0.1470997482538223,-9.188830375671388,0.1470997482538223
2.443681240081787,0.0,0.0,0.0,0.1470997482538223,-9.188830375671388,0.1470997482538223
2.448683738708496,0.0,0.0,0.0017453292384743,0.127486452460289,-9.149603843688965,0.127486452460289
2.4536855220794678,0.0017453292384743,0.0034906584769487,0.0,0.107873149216175,-9.110377311706545,0.1470997482538223
2.4586870670318604,-0.0017453292384743,0.0017453292384743,0.0,0.127486452460289,-9.149603843688965,0.1667130440473556
2.4636900424957275,0.0,0.0017453292384743,0.0,0.107873149216175,-9.169217109680176,0.1667130440473556
2.468691825866699,0.0,0.0,0.0,0.1470997482538223,-9.149603843688965,0.127486452460289
2.4736948013305664,0.0,0.0017453292384743,-0.0017453292384743,0.1470997482538223,-9.208444595336914,0.1470997482538223
2.478696823120117,0.0017453292384743,0.0,-0.0017453292384743,0.1470997482538223,-9.208444595336914,0.1470997482538223
2.483699083328247,0.0,0.0,-0.0017453292384743,0.1667130440473556,-9.188830375671388,0.1470997482538223
2.488701343536377,0.0017453292384743,-0.0034906584769487,0.0,0.127486452460289,-9.169217109680176,0.127486452460289
2.493704319000244,0.0017453292384743,0.0,0.0017453292384743,0.127486452460289,-9.149603843688965,0.107873149216175
2.498706340789795,0.0,0.0052359877154231,0.0,0.127486452460289,-9.169217109680176,0.1470997482538223
2.5037081241607666,0.0,0.0052359877154231,-0.0017453292384743,0.1470997482538223,-9.188830375671388,0.127486452460289
2.508711099624634,0.0017453292384743,0.0,0.0,0.127486452460289,-9.188830375671388,0.127486452460289
2.5137131214141846,0.0,0.0052359877154231,0.0,0.127486452460289,-9.208444595336914,0.1470997482538223
2.5187160968780518,0.0,0.0,0.0017453292384743,0.1470997482538223,-9.169217109680176,0.1470997482538223
2.5237178802490234,0.0,0.0017453292384743,0.0,0.127486452460289,-9.169217109680176,0.1470997482538223
2.5287201404571533,0.0017453292384743,0.0,-0.0052359877154231,0.1470997482538223,-9.149603843688965,0.127486452460289
2.5337231159210205,0.0,0.0052359877154231,0.0,0.1470997482538223,-9.149603843688965,0.127486452460289
2.5387253761291504,0.0,0.0,0.0,0.127486452460289,-9.149603843688965,0.127486452460289
2.5437283515930176,0.0,0.0052359877154231,-0.0017453292384743,0.1470997482538223,-9.208444595336914,0.127486452460289
2.5487303733825684,-0.0017453292384743,0.0034906584769487,0.0034906584769487,0.127486452460289,-9.208444595336914,0.107873149216175
2.5537335872650146,0.0052359877154231,0.0,0.0,0.1470997482538223,-9.188830375671388,0.1470997482538223
2.5587356090545654,0.0,0.0052359877154231,0.0,0.1470997482538223,-9.169217109680176,0.1667130440473556
2.5637378692626953,0.0017453292384743,0.0,0.0,0.1470997482538223,-9.149603843688965,0.1470997482538223
2.5687408447265625,0.0034906584769487,0.0034906584769487,0.0034906584769487,0.1667130440473556,-9.149603843688965,0.1470997482538223
2.5737431049346924,0.0,0.0052359877154231,-0.0017453292384743,0.127486452460289,-9.169217109680176,0.127486452460289
2.5787463188171387,0.0017453292384743,0.0034906584769487,-0.0034906584769487,0.1470997482538223,-9.188830375671388,0.1667130440473556
2.5837485790252686,0.0,0.0,0.0,0.107873149216175,-9.208444595336914,0.1470997482538223
2.5887508392333984,0.0,-0.0052359877154231,-0.0017453292384743,0.127486452460289,-9.188830375671388,0.127486452460289
2.5937540531158447,0.0,0.0,0.0,0.1470997482538223,-9.169217109680176,0.1470997482538223
2.5987563133239746,0.0,0.0034906584769487,-0.0034906584769487,0.1470997482538223,-9.149603843688965,0.107873149216175
2.603759765625,0.0,0.0,0.0,0.1470997482538223,-9.149603843688965,0.1863263398408889
2.60876202583313,0.0,0.0,0.0017453292384743,0.1470997482538223,-9.169217109680176,0.107873149216175
2.613765239715576,-0.0017453292384743,0.0034906584769487,0.0,0.127486452460289,-9.188830375671388,0.107873149216175
2.618767499923706,0.0017453292384743,0.0017453292384743,0.0,0.1470997482538223,-9.188830375671388,0.1470997482538223
2.6237709522247314,0.0,0.0017453292384743,0.0,0.107873149216175,-9.208444595336914,0.127486452460289
2.6287736892700195,0.0017453292384743,0.0,0.0,0.107873149216175,-9.169217109680176,0.1470997482538223
2.6337759494781494,0.0017453292384743,0.0017453292384743,0.0,0.127486452460289,-9.149603843688965,0.127486452460289
2.6387791633605957,0.0,0.0017453292384743,0.0,0.127486452460289,-9.169217109680176,0.127486452460289
2.6437816619873047,0.0,0.0034906584769487,0.0017453292384743,0.127486452460289,-9.169217109680176,0.127486452460289
2.64878511428833,0.0,0.0017453292384743,0.0,0.1667130440473556,-9.188830375671388,0.1470997482538223
2.653787612915039,0.0,0.0052359877154231,0.0,0.127486452460289,-9.188830375671388,0.1470997482538223
2.6587910652160645,0.0052359877154231,0.0,0.0,0.1470997482538223,-9.169217109680176,0.1470997482538223
2.6637935638427734,0.0052359877154231,0.0,0.0,0.107873149216175,-9.169217109680176,0.1470997482538223
2.6687960624694824,0.0017453292384743,0.0052359877154231,0.0,0.127486452460289,-9.169217109680176,0.1470997482538223
2.673799514770508,0.0017453292384743,0.0052359877154231,-0.0017453292384743,0.127486452460289,-9.129990577697754,0.1470997482538223
2.678802251815796,0.0,0.0017453292384743,-0.0017453292384743,0.1470997482538223,-9.188830375671388,0.127486452460289
2.6838059425354004,0.0,0.0052359877154231,0.0017453292384743,0.107873149216175,-9.188830375671388,0.1470997482538223
2.6888084411621094,0.0,0.0034906584769487,0.0,0.127486452460289,-9.188830375671388,0.127486452460289
2.6938118934631348,0.0017453292384743,0.0,-0.0017453292384743,0.1470997482538223,-9.169217109680176,0.127486452460289
2.698814630508423,0.0,0.0,0.0017453292384743,0.127486452460289,-9.188830375671388,0.1667130440473556
2.7038183212280273,0.0,-0.0017453292384743,0.0,0.127486452460289,-9.169217109680176,0.1667130440473556
2.7088212966918945,0.0,0.0052359877154231,0.0,0.107873149216175,-9.149603843688965,0.1470997482538223
2.7138237953186035,-0.0017453292384743,0.0034906584769487,0.0,0.127486452460289,-9.169217109680176,0.1470997482538223
2.718827486038208,0.0017453292384743,0.0017453292384743,0.0,0.1470997482538223,-9.169217109680176,0.127486452460289
2.723829984664917,0.0,0.0,0.0034906584769487,0.1470997482538223,-9.149603843688965,0.127486452460289
2.7288336753845215,0.0,0.0,0.0,0.127486452460289,-9.169217109680176,0.1667130440473556
2.7338364124298096,0.0017453292384743,0.0,-0.0017453292384743,0.127486452460289,-9.169217109680176,0.127486452460289
2.738840341567993,0.0,0.0052359877154231,-0.0017453292384743,0.127486452460289,-9.149603843688965,0.127486452460289
2.7438430786132812,0.0,0.0,0.0017453292384743,0.1470997482538223,-9.149603843688965,0.1470997482538223
2.7488458156585693,0.0,0.0017453292384743,0.0,0.1470997482538223,-9.169217109680176,0.1470997482538223
2.753849506378174,-0.0017453292384743,0.0052359877154231,-0.0017453292384743,0.107873149216175,-9.169217109680176,0.1470997482538223
2.758852481842041,0.0,0.0017453292384743,0.0,0.127486452460289,-9.169217109680176,0.1470997482538223
2.7638564109802246,0.0,0.0034906584769487,-0.0017453292384743,0.127486452460289,-9.208444595336914,0.1667130440473556
2.768859386444092,0.0,-0.0017453292384743,0.0034906584769487,0.127486452460289,-9.188830375671388,0.1470997482538223
2.7738630771636963,0.0017453292384743,0.0017453292384743,0.0,0.127486452460289,-9.169217109680176,0.1667130440473556
2.7788660526275635,0.0,0.0034906584769487,0.0,0.1667130440473556,-9.149603843688965,0.1667130440473556
2.7838687896728516,0.0,0.0017453292384743,0.0017453292384743,0.1470997482538223,-9.169217109680176,0.127486452460289
2.7888729572296143,0.0017453292384743,0.0034906584769487,0.0,0.127486452460289,-9.149603843688965,0.127486452460289
2.7938759326934814,0.0,0.0017453292384743,0.0,0.127486452460289,-9.169217109680176,0.127486452460289
2.798880100250244,0.0017453292384743,0.0,0.0,0.127486452460289,-9.208444595336914,0.1667130440473556
2.8038828372955322,0.0017453292384743,0.0,0.0,0.1470997482538223,-9.188830375671388,0.127486452460289
2.808887004852295,0.0017453292384743,0.0017453292384743,0.0,0.127486452460289,-9.208444595336914,0.107873149216175
2.813889980316162,0.0,0.0,0.0017453292384743,0.127486452460289,-9.149603843688965,0.1470997482538223
2.8188939094543457,0.0,0.0,0.0,0.127486452460289,-9.188830375671388,0.127486452460289
2.823896884918213,0.0034906584769487,0.0034906584769487,0.0,0.127486452460289,-9.149603843688965,0.1470997482538223
2.828900098800659,0.0,0.0,0.0,0.1470997482538223,-9.169217109680176,0.1667130440473556
2.833904266357422,0.0,0.0017453292384743,0.0,0.1470997482538223,-9.169217109680176,0.127486452460289
2.838907480239868,-0.0034906584769487,0.0052359877154231,0.0017453292384743,0.1470997482538223,-9.208444595336914,0.107873149216175
2.843911647796631,0.0,0.0017453292384743,0.0,0.1470997482538223,-9.208444595336914,0.107873149216175
2.848914861679077,0.0,0.0052359877154231,-0.0017453292384743,0.127486452460289,-9.169217109680176,0.127486452460289
2.85391902923584,0.0,0.0017453292384743,0.0,0.1470997482538223,-9.149603843688965,0.1470997482538223
2.858922004699707,0.0,0.0034906584769487,0.0017453292384743,0.107873149216175,-9.149603843688965,0.1470997482538223
2.8639261722564697,0.0,0.0034906584769487,0.0,0.1470997482538223,-9.169217109680176,0.1470997482538223
2.868929386138916,0.0,0.0052359877154231,0.0,0.127486452460289,-9.188830375671388,0.1470997482538223
2.8739328384399414,0.0017453292384743,0.0052359877154231,0.0,0.1667130440473556,-9.169217109680176,0.1470997482538223
2.878937005996704,0.0,0.0,0.0,0.1470997482538223,-9.188830375671388,0.127486452460289
2.8839402198791504,0.0017453292384743,-0.0017453292384743,0.0,0.127486452460289,-9.149603843688965,0.1470997482538223
2.888944625854492,0.0017453292384743,0.0,0.0034906584769487,0.127486452460289,-9.149603843688965,0.127486452460289
2.8939480781555176,0.0,0.0034906584769487,0.0,0.1470997482538223,-9.169217109680176,0.127486452460289
2.898951292037964,0.0,0.0052359877154231,-0.0034906584769487,0.127486452460289,-9.149603843688965,0.127486452460289
2.9039556980133057,0.0,0.0034906584769487,0.0,0.127486452460289,-9.169217109680176,0.127486452460289
2.908958673477173,0.0,0.0034906584769487,0.0,0.107873149216175,-9.188830375671388,0.1470997482538223
2.9139630794525146,0.0,0.0017453292384743,0.0034906584769487,0.1470997482538223,-9.208444595336914,0.1470997482538223
2.918966770172119,0.0017453292384743,0.0034906584769487,0.0,0.1470997482538223,-9.149603843688965,0.127486452460289
2.923971176147461,0.0,0.0,0.0,0.1470997482538223,-9.169217109680176,0.1667130440473556
2.9289746284484863,0.0017453292384743,0.0,0.0017453292384743,0.1470997482538223,-9.169217109680176,0.127486452460289
2.9339792728424072,0.0,0.0017453292384743,0.0,0.1470997482538223,-9.149603843688965,0.1667130440473556
2.9389824867248535,0.0017453292384743,0.0052359877154231,-0.0017453292384743,0.1470997482538223,-9.169217109680176,0.1470997482538223
2.943986177444458,0.0,0.0,0.0017453292384743,0.1470997482538223,-9.169217109680176,0.1470997482538223
2.9489903450012207,0.0,0.0034906584769487,0.0,0.1667130440473556,-9.208444595336914,0.1667130440473556
2.953994035720825,0.0034906584769487,0.0034906584769487,0.0,0.127486452460289,-9.188830375671388,0.1470997482538223
2.958998441696167,0.0,0.0069813169538974,0.0017453292384743,0.1470997482538223,-9.129990577697754,0.1470997482538223
2.9640021324157715,0.0,0.0034906584769487,0.0,0.127486452460289,-9.129990577697754,0.1470997482538223
2.969005823135376,0.0,0.0052359877154231,-0.0017453292384743,0.127486452460289,-9.129990577697754,0.127486452460289
2.9740102291107178,0.0,0.0052359877154231,0.0,0.1470997482538223,-9.169217109680176,0.1470997482538223
2.9790139198303223,0.0,0.0034906584769487,0.0,0.107873149216175,-9.149603843688965,0.127486452460289
2.984018564224243,0.0,0.0052359877154231,-0.0017453292384743,0.1470997482538223,-9.188830375671388,0.127486452460289
2.9890222549438477,0.0017453292384743,0.0,-0.0017453292384743,0.127486452460289,-9.208444595336914,0.107873149216175
2.9940268993377686,0.0,0.0017453292384743,0.0017453292384743,0.127486452460289,-9.169217109680176,0.1470997482538223
2.999030590057373,0.0,0.0069813169538974,0.0,0.1470997482538223,-9.149603843688965,0.1667130440473556
3.004035472869873,-0.0017453292384743,0.0017453292384743,0.0,0.1470997482538223,-9.149603843688965,0.1470997482538223
3.0090386867523193,0.0,0.0052359877154231,0.0,0.127486452460289,-9.188830375671388,0.1470997482538223
3.014042615890503,0.0017453292384743,0.0,0.0017453292384743,0.107873149216175,-9.188830375671388,0.1470997482538223
3.019047498703003,0.0052359877154231,0.0,0.0,0.1470997482538223,-9.208444595336914,0.127486452460289
3.0240511894226074,0.0017453292384743,0.0,-0.0017453292384743,0.1470997482538223,-9.228057861328123,0.1470997482538223
3.0290560722351074,0.0,0.0052359877154231,0.0017453292384743,0.127486452460289,-9.188830375671388,0.127486452460289
3.034059762954712,0.0,0.0034906584769487,-0.0052359877154231,0.1470997482538223,-9.149603843688965,0.1667130440473556
3.039064884185791,-0.0017453292384743,0.0,0.0,0.1667130440473556,-9.149603843688965,0.127486452460289
3.0440685749053955,0.0,0.0052359877154231,0.0,0.127486452460289,-9.169217109680176,0.1470997482538223
3.0490736961364746,0.0,0.0034906584769487,0.0,0.1470997482538223,-9.169217109680176,0.1470997482538223
3.054077386856079,0.0,0.0017453292384743,0.0017453292384743,0.1470997482538223,-9.169217109680176,0.1470997482538223
3.0590810775756836,0.0,0.0017453292384743,-0.0034906584769487,0.127486452460289,-9.188830375671388,0.107873149216175
3.0640861988067627,-0.0017453292384743,0.0034906584769487,0.0,0.127486452460289,-9.208444595336914,0.1667130440473556
3.0690901279449463,0.0,0.0052359877154231,0.0017453292384743,0.127486452460289,-9.149603843688965,0.127486452460289
3.0740950107574463,0.0,0.0017453292384743,-0.0017453292384743,0.1470997482538223,-9.169217109680176,0.127486452460289
3.07909893989563,0.0,0.0052359877154231,0.0,0.1470997482538223,-9.169217109680176,0.1667130440473556
3.084104061126709,0.0017453292384743,0.0034906584769487,0.0017453292384743,0.1470997482538223,-9.169217109680176,0.1667130440473556
3.0891079902648926,0.0,0.0052359877154231,0.0017453292384743,0.1470997482538223,-9.188830375671388,0.1667130440473556
3.094111919403076,-0.0017453292384743,0.0,-0.0017453292384743,0.127486452460289,-9.208444595336914,0.127486452460289
3.099116802215576,0.0017453292384743,0.0,0.0017453292384743,0.1667130440473556,-9.169217109680176,0.1470997482538223
3.104120969772339,0.0017453292384743,0.0017453292384743,0.0034906584769487,0.1470997482538223,-9.208444595336914,0.127486452460289
3.109126091003418,0.0,0.0069813169538974,0.0,0.127486452460289,-9.149603843688965,0.127486452460289
3.1141302585601807,0.0,0.0052359877154231,0.0,0.1470997482538223,-9.149603843688965,0.1470997482538223
3.1191353797912598,0.0,0.0017453292384743,0.0017453292384743,0.127486452460289,-9.188830375671388,0.1470997482538223
3.1241390705108643,0.0,0.0,0.0,0.127486452460289,-9.188830375671388,0.1470997482538223
3.129143476486206,0.0,0.0034906584769487,0.0,0.127486452460289,-9.149603843688965,0.127486452460289
3.1341488361358643,0.0,0.0034906584769487,-0.0017453292384743,0.127486452460289,-9.169217109680176,0.1470997482538223
3.139153003692627,0.0,0.0034906584769487,0.0,0.127486452460289,-9.169217109680176,0.127486452460289
3.144158124923706,0.0,0.0017453292384743,0.0,0.1470997482538223,-9.169217109680176,0.1470997482538223
3.1491622924804688,0.0,0.0,0.0,0.127486452460289,-9.169217109680176,0.1470997482538223
3.154167652130127,0.0017453292384743,0.0,0.0017453292384743,0.127486452460289,-9.169217109680176,0.1470997482538223
3.1591718196868896,0.0017453292384743,0.0,0.0,0.1470997482538223,-9.188830375671388,0.107873149216175
3.1641762256622314,0.0,0.0017453292384743,0.0,0.1667130440473556,-9.208444595336914,0.1470997482538223
3.1691813468933105,0.0,0.0034906584769487,0.0,0.1470997482538223,-9.208444595336914,0.1470997482538223
3.1741857528686523,0.0,0.0052359877154231,0.0,0.1470997482538223,-9.188830375671388,0.1470997482538223
3.1791911125183105,0.0,0.0017453292384743,0.0,0.127486452460289,-9.149603843688965,0.107873149216175
3.1841952800750732,-0.0017453292384743,0.0052359877154231,0.0,0.107873149216175,-9.169217109680176,0.127486452460289
3.1892008781433105,0.0017453292384743,0.0052359877154231,-0.0052359877154231,0.107873149216175,-9.149603843688965,0.127486452460289
3.1942052841186523,0.0,0.0017453292384743,0.0034906584769487,0.1470997482538223,-9.169217109680176,0.127486452460289
3.1992104053497314,0.0,0.0017453292384743,0.0,0.1470997482538223,-9.188830375671388,0.127486452460289
3.2042148113250732,0.0,0.0069813169538974,0.0,0.1470997482538223,-9.188830375671388,0.127486452460289
3.2092196941375732,-0.0017453292384743,0.0,0.0017453292384743,0.1470997482538223,-9.188830375671388,0.1470997482538223
3.2142248153686523,0.0,0.0,0.0,0.1470997482538223,-9.169217109680176,0.1470997482538223
3.219229221343994,0.0,0.0,0.0,0.127486452460289,-9.169217109680176,0.127486452460289
3.2242348194122314,0.0017453292384743,0.0052359877154231,0.0,0.127486452460289,-9.149603843688965,0.1667130440473556
3.2292392253875732,0.0034906584769487,0.0034906584769487,-0.0017453292384743,0.127486452460289,-9.188830375671388,0.1470997482538223
3.2342448234558105,0.0034906584769487,0.0,-0.0034906584769487,0.127486452460289,-9.149603843688965,0.1667130440473556
3.2392168045043945,0.0,0.0034906584769487,-0.0034906584769487,0.1667130440473556,-9.208444595336914,0.127486452460289
3.2442073822021484,0.0,0.0,0.0034906584769487,0.1667130440473556,-9.208444595336914,0.127486452460289
3.249197006225586,0.0,0.0069813169538974,-0.0034906584769487,0.1667130440473556,-9.188830375671388,0.1470997482538223
3.2541863918304443,0.0,0.0,-0.0017453292384743,0.1470997482538223,-9.169217109680176,0.127486452460289
3.2591772079467773,0.0,0.0,0.0,0.107873149216175,-9.169217109680176,0.127486452460289
3.264166831970215,0.0034906584769487,0.0,-0.0017453292384743,0.127486452460289,-9.149603843688965,0.127486452460289
3.2691574096679688,0.0034906584769487,0.0017453292384743,0.0017453292384743,0.1470997482538223,-9.169217109680176,0.1667130440473556
3.2741470336914062,0.0,0.0017453292384743,0.0034906584769487,0.1470997482538223,-9.169217109680176,0.107873149216175
3.2791364192962646,0.0017453292384743,0.0034906584769487,-0.0017453292384743,0.1470997482538223,-9.208444595336914,0.127486452460289
3.2841272354125977,0.0017453292384743,-0.0017453292384743,0.0,0.127486452460289,-9.188830375671388,0.127486452460289
3.289116621017456,0.0,0.0034906584769487,0.0052359877154231,0.1470997482538223,-9.169217109680176,0.127486452460289
3.29410719871521,0.0,0.0052359877154231,0.0,0.127486452460289,-9.129990577697754,0.1470997482538223
3.2990965843200684,0.0017453292384743,0.0034906584769487,0.0,0.1470997482538223,-9.149603843688965,0.127486452460289
3.3040874004364014,0.0,0.0017453292384743,0.0,0.1470997482538223,-9.149603843688965,0.127486452460289
3.3090767860412598,0.0,0.0,0.0017453292384743,0.0882598459720611,-9.208444595336914,0.107873149216175
3.3140673637390137,0.0017453292384743,-0.0017453292384743,0.0,0.1470997482538223,-9.228057861328123,0.107873149216175
3.319056749343872,0.0017453292384743,0.0034906584769487,0.0,0.127486452460289,-9.188830375671388,0.127486452460289
3.3240463733673096,0.0,0.0,0.0,0.127486452460289,-9.188830375671388,0.1470997482538223
3.3290369510650635,0.0,0.0034906584769487,0.0,0.1667130440473556,-9.149603843688965,0.1470997482538223
3.334026336669922,0.0052359877154231,0.0,0.0017453292384743,0.1470997482538223,-9.110377311706545,0.107873149216175
3.3390166759490967,0.0,0.0,-0.0017453292384743,0.107873149216175,-9.149603843688965,0.1667130440473556
3.344006299972534,0.0,0.0034906584769487,0.0,0.127486452460289,-9.208444595336914,0.107873149216175
3.348996877670288,0.0,0.0034906584769487,0.0017453292384743,0.107873149216175,-9.228057861328123,0.127486452460289
3.3539862632751465,0.0,0.0017453292384743,0.0,0.127486452460289,-9.228057861328123,0.127486452460289
3.358975887298584,0.0,0.0069813169538974,-0.0017453292384743,0.127486452460289,-9.208444595336914,0.1470997482538223
3.363966226577759,-0.0017453292384743,0.0017453292384743,0.0,0.1470997482538223,-9.169217109680176,0.127486452460289
3.368955612182617,0.0,0.0034906584769487,-0.0034906584769487,0.1470997482538223,-9.149603843688965,0.1667130440473556
3.373945951461792,0.0,0.0017453292384743,0.0052359877154231,0.1667130440473556,-9.149603843688965,0.127486452460289
3.3789355754852295,0.0,0.0017453292384743,0.0,0.1667130440473556,-9.149603843688965,0.127486452460289
3.3839259147644043,0.0,0.0,0.0,0.1667130440473556,-9.149603843688965,0.127486452460289
3.388915538787842,0.0,0.0,-0.0017453292384743,0.127486452460289,-9.188830375671388,0.1470997482538223
3.3939056396484375,-0.0017453292384743,0.0,0.0,0.127486452460289,-9.169217109680176,0.1863263398408889
3.398895263671875,0.0,0.0069813169538974,-0.0017453292384743,0.1667130440473556,-9.149603843688965,0.107873149216175
3.4038848876953125,-0.0017453292384743,0.0034906584769487,0.0,0.1470997482538223,-9.149603843688965,0.1667130440473556
3.408874988555908,0.0,0.0034906584769487,0.0,0.127486452460289,-9.169217109680176,0.1667130440473556
3.4138643741607666,0.0017453292384743,0.0034906584769487,-0.0017453292384743,0.1470997482538223,-9.169217109680176,0.127486452460289
3.4188547134399414,0.0,0.0,0.0,0.127486452460289,-9.188830375671388,0.127486452460289
3.4238440990448,0.0,0.0,-0.0034906584769487,0.127486452460289,-9.208444595336914,0.127486452460289
3.428833484649658,0.0,0.0052359877154231,-0.0017453292384743,0.1470997482538223,-9.169217109680176,0.0882598459720611
3.433824062347412,0.0,0.0034906584769487,0.0,0.1470997482538223,-9.169217109680176,0.0882598459720611
3.4388132095336914,0.0,0.0,0.0017453292384743,0.127486452460289,-9.129990577697754,0.1470997482538223
3.4438037872314453,0.0,0.0,0.0,0.127486452460289,-9.149603843688965,0.1667130440473556
3.4487929344177246,0.0034906584769487,0.0034906584769487,0.0,0.1470997482538223,-9.169217109680176,0.107873149216175
3.4537835121154785,0.0,0.0052359877154231,0.0,0.1470997482538223,-9.208444595336914,0.1470997482538223
3.458772897720337,0.0017453292384743,0.0,0.0017453292384743,0.1470997482538223,-9.228057861328123,0.107873149216175
3.4637629985809326,0.0017453292384743,0.0,0.0,0.1667130440473556,-9.188830375671388,0.1667130440473556
3.468752384185791,0.0,0.0052359877154231,0.0,0.1667130440473556,-9.169217109680176,0.1470997482538223
3.4737417697906494,0.0,-0.0017453292384743,0.0017453292384743,0.1470997482538223,-9.149603843688965,0.1470997482538223
3.478731870651245,0.0,0.0017453292384743,0.0,0.127486452460289,-9.149603843688965,0.127486452460289
3.4837212562561035,-0.0017453292384743,0.0017453292384743,-0.0017453292384743,0.127486452460289,-9.169217109680176,0.127486452460289
3.4887115955352783,0.0034906584769487,0.0034906584769487,0.0,0.127486452460289,-9.188830375671388,0.127486452460289
3.4937009811401367,0.0,0.0017453292384743,0.0,0.127486452460289,-9.208444595336914,0.127486452460289
3.4986910820007324,0.0017453292384743,0.0034906584769487,0.0,0.1470997482538223,-9.188830375671388,0.1470997482538223
3.503680467605591,0.0034906584769487,0.0,0.0017453292384743,0.127486452460289,-9.169217109680176,0.127486452460289
3.50866961479187,0.0,0.0,-0.0017453292384743,0.1667130440473556,-9.149603843688965,0.1667130440473556
3.513659954071045,0.0,0.0034906584769487,0.0017453292384743,0.1667130440473556,-9.149603843688965,0.127486452460289
3.518649101257324,0.0017453292384743,0.0017453292384743,0.0,0.1667130440473556,-9.149603843688965,0.1863263398408889
3.523639678955078,0.0,0.0017453292384743,0.0,0.1470997482538223,-9.188830375671388,0.1470997482538223
3.5286285877227783,0.0017453292384743,0.0017453292384743,0.0,0.127486452460289,-9.208444595336914,0.1470997482538223
3.533618688583374,0.0,0.0,0.0,0.1470997482538223,-9.169217109680176,0.1470997482538223
3.5386080741882324,0.0017453292384743,0.0017453292384743,0.0069813169538974,0.127486452460289,-9.188830375671388,0.1470997482538223
3.5435984134674072,0.0,0.0034906584769487,0.0,0.1470997482538223,-9.169217109680176,0.1470997482538223
3.5485875606536865,0.0,0.0017453292384743,0.0,0.127486452460289,-9.129990577697754,0.1667130440473556
3.553576707839966,0.0017453292384743,0.0052359877154231,0.0017453292384743,0.1470997482538223,-9.149603843688965,0.127486452460289
3.5585668087005615,0.0,0.0034906584769487,0.0,0.1470997482538223,-9.169217109680176,0.127486452460289
3.56355619430542,0.0017453292384743,0.0052359877154231,0.0017453292384743,0.127486452460289,-9.208444595336914,0.1667130440473556
3.5685462951660156,0.0,0.0,0.0017453292384743,0.127486452460289,-9.228057861328123,0.1667130440473556
3.573535680770874,0.0,0.0,0.0034906584769487,0.1667130440473556,-9.208444595336914,0.107873149216175
3.5785255432128906,0.0,0.0,0.0,0.127486452460289,-9.169217109680176,0.1470997482538223
3.58351469039917,0.0,0.0,0.0,0.1470997482538223,-9.149603843688965,0.1470997482538223
3.5885050296783447,0.0,0.0034906584769487,0.0,0.107873149216175,-9.129990577697754,0.127486452460289
3.593494176864624,0.0,0.0,0.0,0.127486452460289,-9.169217109680176,0.1470997482538223
3.598483085632324,0.0017453292384743,0.0034906584769487,0.0,0.1470997482538223,-9.208444595336914,0.1470997482538223
3.603473424911499,0.0,0.0,0.0,0.107873149216175,-9.188830375671388,0.107873149216175
3.6084625720977783,0.0,0.0017453292384743,0.0,0.107873149216175,-9.188830375671388,0.127486452460289
3.613452672958374,0.0,0.0,0.0,0.1470997482538223,-9.188830375671388,0.1470997482538223
3.6184418201446533,0.0,0.0052359877154231,-0.0034906584769487,0.107873149216175,-9.169217109680176,0.107873149216175
3.6234309673309326,0.0,0.0,-0.0017453292384743,0.127486452460289,-9.169217109680176,0.127486452460289
3.6284210681915283,0.0,0.0034906584769487,0.0,0.1667130440473556,-9.149603843688965,0.127486452460289
3.6334102153778076,0.0,0.0017453292384743,-0.0017453292384743,0.1470997482538223,-9.169217109680176,0.107873149216175
3.6384003162384033,0.0034906584769487,0.0034906584769487,0.0034906584769487,0.127486452460289,-9.188830375671388,0.1470997482538223
3.6433897018432617,0.0,0.0,-0.0034906584769487,0.127486452460289,-9.188830375671388,0.1470997482538223
3.64837908744812,0.0,0.0034906584769487,-0.0017453292384743,0.127486452460289,-9.169217109680176,0.1470997482538223
3.6533687114715576,0.0,0.0,0.0,0.1470997482538223,-9.169217109680176,0.1470997482538223
3.658357620239258,0.0,0.0034906584769487,-0.0034906584769487,0.127486452460289,-9.149603843688965,0.1667130440473556
3.6633474826812744,0.0017453292384743,0.0,0.0,0.1470997482538223,-9.149603843688965,0.127486452460289
3.6683366298675537,0.0052359877154231,0.0034906584769487,0.0,0.1667130440473556,-9.188830375671388,0.1667130440473556
3.6733267307281494,0.0017453292384743,0.0,0.0,0.1667130440473556,-9.188830375671388,0.1667130440473556
3.6783158779144287,0.0034906584769487,0.0034906584769487,0.0,0.1470997482538223,-9.208444595336914,0.127486452460289
3.6833059787750244,-0.0034906584769487,0.0017453292384743,0.0,0.127486452460289,-9.169217109680176,0.127486452460289
3.6882948875427246,0.0,0.0052359877154231,0.0,0.1667130440473556,-9.149603843688965,0.1470997482538223
3.693283796310425,0.0017453292384743,0.0017453292384743,0.0,0.1667130440473556,-9.149603843688965,0.1470997482538223
3.6982738971710205,0.0017453292384743,0.0034906584769487,0.0,0.127486452460289,-9.169217109680176,0.127486452460289
3.7032628059387207,-0.0017453292384743,0.0034906584769487,0.0,0.1470997482538223,-9.188830375671388,0.127486452460289
3.7082526683807373,0.0,0.0069813169538974,-0.0034906584769487,0.1470997482538223,-9.169217109680176,0.127486452460289
3.7132418155670166,0.0017453292384743,0.0017453292384743,0.0,0.1470997482538223,-9.188830375671388,0.1667130440473556
3.7182319164276123,0.0,0.0052359877154231,0.0,0.1470997482538223,-9.208444595336914,0.1470997482538223
3.7232208251953125,0.0034906584769487,0.0017453292384743,0.0,0.127486452460289,-9.169217109680176,0.127486452460289
3.728210687637329,0.0,0.0,0.0017453292384743,0.127486452460289,-9.169217109680176,0.127486452460289
3.7332000732421875,-0.0017453292384743,0.0069813169538974,0.0017453292384743,0.1470997482538223,-9.169217109680176,0.127486452460289
3.738189697265625,0.0,0.0034906584769487,0.0017453292384743,0.1470997482538223,-9.169217109680176,0.127486452460289
3.743178606033325,0.0,0.0069813169538974,-0.0034906584769487,0.1470997482538223,-9.208444595336914,0.107873149216175
3.7481677532196045,0.0034906584769487,0.0,0.0,0.127486452460289,-9.208444595336914,0.1470997482538223
3.753157615661621,0.0,0.0017453292384743,0.0017453292384743,0.107873149216175,-9.188830375671388,0.1667130440473556
3.758146286010742,-0.0017453292384743,0.0017453292384743,0.0,0.1470997482538223,-9.188830375671388,0.1470997482538223
3.763136386871338,0.0,0.0017453292384743,0.0,0.1470997482538223,-9.129990577697754,0.1667130440473556
3.768125534057617,0.0,0.0017453292384743,-0.0017453292384743,0.127486452460289,-9.169217109680176,0.127486452460289
3.7731142044067383,0.0,0.0,0.0,0.127486452460289,-9.129990577697754,0.107873149216175
3.778104305267334,0.0,0.0087266461923718,-0.0017453292384743,0.1470997482538223,-9.169217109680176,0.127486452460289
3.783093214035034,0.0,0.0052359877154231,0.0,0.1667130440473556,-9.188830375671388,0.1667130440473556
3.788083076477051,0.0,0.0034906584769487,0.0,0.127486452460289,-9.188830375671388,0.1470997482538223
3.793071985244751,0.0,0.0,0.0,0.127486452460289,-9.169217109680176,0.1470997482538223
3.7980620861053467,0.0,0.0,0.0034906584769487,0.127486452460289,-9.169217109680176,0.1470997482538223
3.8030507564544678,0.0,0.0052359877154231,0.0017453292384743,0.127486452460289,-9.169217109680176,0.1863263398408889
3.808039426803589,0.0,0.0,0.0,0.1470997482538223,-9.149603843688965,0.1667130440473556
3.8130295276641846,0.0017453292384743,0.0034906584769487,0.0,0.107873149216175,-9.129990577697754,0.1470997482538223
3.8180181980133057,-0.0034906584769487,0.0017453292384743,0.0017453292384743,0.1470997482538223,-9.188830375671388,0.1470997482538223
3.8230082988739014,0.0,0.0034906584769487,-0.0017453292384743,0.127486452460289,-9.208444595336914,0.1470997482538223
3.8279969692230225,0.0017453292384743,0.0,0.0,0.107873149216175,-9.188830375671388,0.1470997482538223
3.832986831665039,-0.0017453292384743,0.0,0.0017453292384743,0.107873149216175,-9.188830375671388,0.1470997482538223
3.83797550201416,0.0,0.0034906584769487,0.0,0.1667130440473556,-9.129990577697754,0.1470997482538223
3.842965602874756,0.0,0.0,0.0,0.1667130440473556,-9.149603843688965,0.1470997482538223
3.847954273223877,0.0,0.0017453292384743,0.0,0.127486452460289,-9.188830375671388,0.1667130440473556
3.852943181991577,0.0,0.0017453292384743,-0.0017453292384743,0.1667130440473556,-9.208444595336914,0.127486452460289
3.8579328060150146,0.0,0.0052359877154231,0.0,0.107873149216175,-9.188830375671388,0.127486452460289
3.8629214763641357,0.0017453292384743,0.0,0.0,0.0882598459720611,-9.188830375671388,0.127486452460289
3.8679115772247314,0.0017453292384743,0.0,0.0,0.127486452460289,-9.169217109680176,0.127486452460289
3.8729002475738525,0.0,0.0,0.0,0.1470997482538223,-9.149603843688965,0.1470997482538223
3.877890110015869,0.0,0.0,0.0,0.1470997482538223,-9.129990577697754,0.107873149216175
3.8828787803649902,0.0,0.0052359877154231,-0.0034906584769487,0.1470997482538223,-9.169217109680176,0.127486452460289
3.8878676891326904,-0.0017453292384743,0.0034906584769487,0.0,0.1667130440473556,-9.208444595336914,0.1470997482538223
3.892857074737549,0.0,0.0017453292384743,0.0017453292384743,0.1667130440473556,-9.208444595336914,0.1470997482538223
3.897846221923828,0.0,0.0034906584769487,-0.0017453292384743,0.127486452460289,-9.188830375671388,0.127486452460289
3.9028360843658447,0.0,0.0,0.0,0.127486452460289,-9.169217109680176,0.1667130440473556
3.907824754714966,0.0,0.0034906584769487,0.0,0.1470997482538223,-9.149603843688965,0.1863263398408889
3.9128143787384033,0.0034906584769487,0.0,0.0,0.127486452460289,-9.149603843688965,0.127486452460289
3.9178032875061035,0.0,0.0,0.0034906584769487,0.127486452460289,-9.149603843688965,0.1667130440473556
3.922792673110962,0.0017453292384743,0.0,0.0034906584769487,0.127486452460289,-9.169217109680176,0.1470997482538223
3.927781581878662,0.0017453292384743,0.0017453292384743,0.0,0.127486452460289,-9.208444595336914,0.127486452460289
3.932770252227783,0.0,0.0034906584769487,0.0,0.1470997482538223,-9.188830375671388,0.1470997482538223
3.9377598762512207,0.0,0.0017453292384743,0.0,0.1667130440473556,-9.188830375671388,0.1470997482538223
3.942748546600342,-0.0017453292384743,0.0,0.0,0.127486452460289,-9.149603843688965,0.127486452460289
3.9477381706237793,0.0017453292384743,0.0052359877154231,-0.0017453292384743,0.1470997482538223,-9.188830375671388,0.1470997482538223
3.9527270793914795,0.0,0.0,0.0034906584769487,0.1470997482538223,-9.149603843688965,0.1667130440473556
3.957716464996338,0.0,0.0,0.0052359877154231,0.1667130440473556,-9.149603843688965,0.1667130440473556
3.962705373764038,0.0017453292384743,0.0,0.0,0.127486452460289,-9.208444595336914,0.1470997482538223
3.967694044113159,0.0,0.0,0.0,0.1667130440473556,-9.228057861328123,0.127486452460289
3.9726836681365967,0.0034906584769487,0.0034906584769487,0.0017453292384743,0.1470997482538223,-9.208444595336914,0.107873149216175
3.9776723384857178,0.0,0.0034906584769487,0.0,0.1470997482538223,-9.149603843688965,0.1470997482538223
3.982661485671997,0.0034906584769487,0.0,0.0,0.1470997482538223,-9.169217109680176,0.1667130440473556
3.9876506328582764,0.0034906584769487,0.0,-0.0034906584769487,0.127486452460289,-9.149603843688965,0.1470997482538223
3.9926400184631348,-0.0017453292384743,0.0034906584769487,0.0034906584769487,0.127486452460289,-9.149603843688965,0.127486452460289
3.997628688812256,0.0,0.0,0.0,0.1470997482538223,-9.149603843688965,0.1667130440473556
4.002618312835693,0.0,0.0034906584769487,0.0,0.127486452460289,-9.169217109680176,0.127486452460289
4.0076069831848145,0.0034906584769487,0.0,-0.0034906584769487,0.127486452460289,-9.188830375671388,0.1863263398408889
4.0125956535339355,0.0,0.0052359877154231,0.0,0.1470997482538223,-9.169217109680176,0.1667130440473556
4.017585277557373,0.0,0.0,0.0017453292384743,0.1470997482538223,-9.149603843688965,0.1667130440473556
4.022573471069336,0.0034906584769487,0.0017453292384743,0.0,0.1470997482538223,-9.149603843688965,0.127486452460289
4.027563095092773,0.0,0.0052359877154231,-0.0034906584769487,0.127486452460289,-9.169217109680176,0.1470997482538223
4.032552003860474,0.0,0.0017453292384743,0.0,0.127486452460289,-9.149603843688965,0.127486452460289
4.037541389465332,0.0,0.0034906584769487,0.0,0.127486452460289,-9.208444595336914,0.107873149216175
4.042530059814453,0.0034906584769487,0.0017453292384743,0.0,0.127486452460289,-9.208444595336914,0.1667130440473556
4.047518491744995,-0.0017453292384743,0.0,-0.0034906584769487,0.127486452460289,-9.208444595336914,0.1470997482538223
4.052508354187012,0.0017453292384743,0.0,-0.0034906584769487,0.127486452460289,-9.149603843688965,0.1470997482538223
4.057496786117554,0.0,0.0052359877154231,0.0017453292384743,0.1863263398408889,-9.149603843688965,0.1863263398408889
4.062486410140991,-0.0017453292384743,0.0,0.0,0.1470997482538223,-9.149603843688965,0.1470997482538223
4.067474842071533,0.0,0.0052359877154231,-0.0017453292384743,0.107873149216175,-9.169217109680176,0.1863263398408889
4.072464227676392,0.0,0.0017453292384743,0.0,0.1667130440473556,-9.188830375671388,0.1470997482538223
4.077452898025513,0.0017453292384743,0.0034906584769487,0.0,0.1470997482538223,-9.169217109680176,0.127486452460289
4.082442283630371,0.0,0.0034906584769487,0.0034906584769487,0.107873149216175,-9.188830375671388,0.1667130440473556
4.087430953979492,0.0,0.0017453292384743,0.0017453292384743,0.127486452460289,-9.169217109680176,0.1470997482538223
4.092419385910034,-0.0017453292384743,0.0052359877154231,-0.0034906584769487,0.127486452460289,-9.169217109680176,0.127486452460289
4.097409009933472,-0.0017453292384743,0.0087266461923718,-0.0052359877154231,0.1667130440473556,-9.149603843688965,0.1470997482538223
4.102397203445435,0.0034906584769487,0.0,0.0017453292384743,0.1470997482538223,-9.149603843688965,0.1470997482538223
4.107386589050293,0.0017453292384743,0.0,0.0,0.127486452460289,-9.188830375671388,0.1470997482538223
4.112375259399414,0.0,0.0,0.0,0.1470997482538223,-9.188830375671388,0.1470997482538223
4.117363691329956,0.0,0.0,0.0034906584769487,0.0882598459720611,-9.188830375671388,0.2059396505355835
4.1223530769348145,0.0,0.0,0.0,0.127486452460289,-9.188830375671388,0.127486452460289
4.127342462539673,0.0017453292384743,0.0,0.0017453292384743,0.127486452460289,-9.208444595336914,0.1470997482538223
4.132331132888794,0.0017453292384743,-0.0017453292384743,0.0017453292384743,0.127486452460289,-9.149603843688965,0.1863263398408889
4.137319564819336,0.0017453292384743,0.0,0.0,0.1667130440473556,-9.149603843688965,0.1667130440473556
4.142308712005615,0.0,0.0034906584769487,0.0017453292384743,0.1667130440473556,-9.188830375671388,0.1667130440473556
4.147297382354736,0.0,0.0017453292384743,0.0,0.127486452460289,-9.169217109680176,0.107873149216175
4.152286767959595,0.0,-0.0017453292384743,0.0034906584769487,0.1470997482538223,-9.228057861328123,0.127486452460289
4.157275199890137,0.0017453292384743,0.0,0.0,0.107873149216175,-9.188830375671388,0.1667130440473556
4.162263631820679,0.0,0.0,0.0,0.1667130440473556,-9.188830375671388,0.127486452460289
4.167253017425537,0.0017453292384743,0.0,0.0034906584769487,0.127486452460289,-9.169217109680176,0.1667130440473556
4.172241687774658,0.0017453292384743,0.0017453292384743,0.0,0.107873149216175,-9.110377311706545,0.1470997482538223
4.177230596542358,0.0,0.0,0.0,0.127486452460289,-9.149603843688965,0.127486452460289
4.1822190284729,-0.0017453292384743,0.0,0.0,0.127486452460289,-9.188830375671388,0.1470997482538223
4.187208414077759,0.0034906584769487,0.0017453292384743,0.0017453292384743,0.1470997482538223,-9.188830375671388,0.127486452460289
4.192196846008301,0.0017453292384743,0.0,-0.0017453292384743,0.127486452460289,-9.188830375671388,0.1470997482538223
4.197185277938843,0.0017453292384743,0.0034906584769487,0.0,0.127486452460289,-9.169217109680176,0.1667130440473556
4.202174425125122,0.0017453292384743,0.0,0.0017453292384743,0.107873149216175,-9.129990577697754,0.127486452460289
4.207162857055664,0.0017453292384743,0.0034906584769487,0.0,0.1470997482538223,-9.129990577697754,0.1667130440473556
4.2121522426605225,0.0017453292384743,0.0,0.0052359877154231,0.107873149216175,-9.149603843688965,0.1667130440473556
4.2171406745910645,0.0,0.0052359877154231,0.0,0.1470997482538223,-9.129990577697754,0.1470997482538223
4.222129821777344,0.0,0.0017453292384743,0.0,0.127486452460289,-9.188830375671388,0.107873149216175
4.227118253707886,0.0017453292384743,0.0017453292384743,0.0017453292384743,0.107873149216175,-9.208444595336914,0.1470997482538223
4.232113361358643,0.0017453292384743,-0.0017453292384743,0.0,0.127486452460289,-9.188830375671388,0.1667130440473556
4.237107276916504,-0.0017453292384743,0.0052359877154231,0.0,0.1470997482538223,-9.169217109680176,0.1470997482538223
4.242098093032837,0.0,0.0,0.0017453292384743,0.127486452460289,-9.129990577697754,0.1470997482538223
4.2470879554748535,0.0,0.0052359877154231,0.0,0.127486452460289,-9.169217109680176,0.1470997482538223
4.252078294754028,0.0,0.0,0.0,0.127486452460289,-9.149603843688965,0.127486452460289
4.257068634033203,0.0,0.0034906584769487,0.0,0.127486452460289,-9.169217109680176,0.127486452460289
4.262058258056641,0.0034906584769487,0.0017453292384743,0.0,0.1667130440473556,-9.169217109680176,0.1470997482538223
4.267049074172974,0.0,0.0034906584769487,0.0,0.127486452460289,-9.149603843688965,0.127486452460289
4.272038698196411,0.0,0.0017453292384743,0.0,0.127486452460289,-9.149603843688965,0.1470997482538223
4.277028560638428,0.0,0.0069813169538974,-0.0017453292384743,0.107873149216175,-9.169217109680176,0.1667130440473556
4.282019376754761,0.0,0.0017453292384743,0.0,0.1470997482538223,-9.129990577697754,0.1667130440473556
4.287009000778198,-0.0017453292384743,0.0069813169538974,0.0017453292384743,0.1667130440473556,-9.169217109680176,0.107873149216175
4.291999816894531,0.0034906584769487,0.0017453292384743,0.0,0.127486452460289,-9.188830375671388,0.127486452460289
4.296989679336548,0.0017453292384743,0.0034906584769487,0.0,0.127486452460289,-9.188830375671388,0.1470997482538223
4.301980257034302,0.0017453292384743,0.0034906584769487,0.0,0.1470997482538223,-9.149603843688965,0.1470997482538223
4.306969881057739,0.0,0.0,0.0,0.107873149216175,-9.188830375671388,0.127486452460289
4.311960697174072,0.0,0.0017453292384743,0.0,0.1667130440473556,-9.149603843688965,0.1667130440473556
4.31695032119751,0.0,0.0017453292384743,0.0,0.127486452460289,-9.149603843688965,0.127486452460289
4.321940183639526,0.0,0.0052359877154231,0.0,0.127486452460289,-9.169217109680176,0.1470997482538223
4.326930999755859,0.0,0.0017453292384743,0.0017453292384743,0.1470997482538223,-9.228057861328123,0.1470997482538223
4.331920385360718,0.0,0.0087266461923718,-0.0017453292384743,0.127486452460289,-9.169217109680176,0.1470997482538223
4.336911201477051,0.0034906584769487,0.0017453292384743,0.0034906584769487,0.1470997482538223,-9.208444595336914,0.127486452460289
4.341900825500488,0.0017453292384743,0.0052359877154231,-0.0017453292384743,0.127486452460289,-9.188830375671388,0.107873149216175
4.346890687942505,0.0,0.0017453292384743,-0.0017453292384743,0.1470997482538223,-9.149603843688965,0.1470997482538223
4.35188102722168,0.0052359877154231,0.0017453292384743,0.0034906584769487,0.127486452460289,-9.169217109680176,0.1470997482538223
4.356872081756592,0.0017453292384743,0.0,0.0,0.1470997482538223,-9.188830375671388,0.127486452460289
4.36186146736145,0.0,0.0017453292384743,0.0,0.127486452460289,-9.188830375671388,0.1667130440473556
4.366851091384888,0.0017453292384743,0.0017453292384743,-0.0017453292384743,0.127486452460289,-9.228057861328123,0.1470997482538223
4.371841669082642,0.0034906584769487,0.0,0.0,0.1470997482538223,-9.169217109680176,0.107873149216175
4.376831293106079,0.0,0.0017453292384743,0.0,0.127486452460289,-9.169217109680176,0.107873149216175
4.381822109222412,0.0,0.0,-0.0017453292384743,0.127486452460289,-9.169217109680176,0.127486452460289
4.3868114948272705,0.0,0.0052359877154231,0.0052359877154231,0.127486452460289,-9.149603843688965,0.1470997482538223
4.3918023109436035,0.0,0.0017453292384743,-0.0017453292384743,0.1470997482538223,-9.129990577697754,0.1470997482538223
4.396791696548462,0.0017453292384743,0.0,0.0017453292384743,0.127486452460289,-9.169217109680176,0.127486452460289
4.401782274246216,0.0017453292384743,0.0034906584769487,-0.0017453292384743,0.1470997482538223,-9.208444595336914,0.1470997482538223
4.406771898269653,0.0,0.0,0.0017453292384743,0.127486452460289,-9.208444595336914,0.107873149216175
4.41176176071167,0.0017453292384743,0.0,0.0,0.1470997482538223,-9.208444595336914,0.1470997482538223
4.416752099990845,-0.0017453292384743,0.0,0.0,0.1470997482538223,-9.188830375671388,0.127486452460289
4.421741485595703,0.0,0.0,0.0034906584769487,0.127486452460289,-9.149603843688965,0.1470997482538223
4.426732301712036,0.0017453292384743,0.0034906584769487,0.0,0.127486452460289,-9.129990577697754,0.127486452460289
4.431721925735474,-0.0017453292384743,0.0052359877154231,-0.0017453292384743,0.107873149216175,-9.188830375671388,0.1470997482538223
4.436711072921753,0.0,0.0034906584769487,0.0017453292384743,0.127486452460289,-9.188830375671388,0.127486452460289
4.441701889038086,0.0034906584769487,0.0,-0.0017453292384743,0.1470997482538223,-9.188830375671388,0.127486452460289
4.446691274642944,0.0,0.0034906584769487,0.0017453292384743,0.1470997482538223,-9.208444595336914,0.1470997482538223
4.451682090759277,0.0,0.0034906584769487,0.0,0.1667130440473556,-9.208444595336914,0.127486452460289
4.456671476364136,0.0,0.0052359877154231,0.0,0.107873149216175,-9.169217109680176,0.127486452460289
4.46166205406189,0.0,0.0052359877154231,-0.0017453292384743,0.127486452460289,-9.169217109680176,0.127486452460289
4.466651678085327,0.0,0.0034906584769487,0.0,0.127486452460289,-9.129990577697754,0.1470997482538223
4.471642017364502,0.0,0.0069813169538974,-0.0017453292384743,0.1470997482538223,-9.188830375671388,0.127486452460289
4.4766316413879395,0.0017453292384743,0.0017453292384743,0.0,0.1667130440473556,-9.188830375671388,0.1667130440473556
4.481621980667114,0.0,0.0052359877154231,-0.0017453292384743,0.127486452460289,-9.188830375671388,0.127486452460289
4.486611604690552,0.0,0.0034906584769487,-0.0017453292384743,0.127486452460289,-9.169217109680176,0.1470997482538223
4.49160099029541,0.0,0.0,0.0,0.127486452460289,-9.169217109680176,0.107873149216175
4.496591567993164,0.0052359877154231,0.0,0.0,0.1470997482538223,-9.129990577697754,0.1470997482538223
4.5015809535980225,-0.0017453292384743,0.0034906584769487,0.0,0.1470997482538223,-9.149603843688965,0.1470997482538223
4.506571531295776,0.0034906584769487,0.0017453292384743,0.0017453292384743,0.1470997482538223,-9.169217109680176,0.1470997482538223
4.511560678482056,0.0,0.0,0.0,0.127486452460289,-9.149603843688965,0.1667130440473556
4.516550302505493,0.0017453292384743,0.0,0.0034906584769487,0.1667130440473556,-9.169217109680176,0.1470997482538223
4.521540880203247,-0.0017453292384743,-0.0034906584769487,0.0,0.1470997482538223,-9.208444595336914,0.1667130440473556
4.5265302658081055,0.0,0.0,0.0,0.1667130440473556,-9.169217109680176,0.1470997482538223
4.531520843505859,0.0,0.0017453292384743,0.0,0.1470997482538223,-9.169217109680176,0.1667130440473556
4.536509990692139,0.0,0.0,0.0,0.1470997482538223,-9.149603843688965,0.127486452460289
4.541500568389893,0.0017453292384743,0.0,0.0,0.1470997482538223,-9.188830375671388,0.1470997482538223
4.546489953994751,0.0034906584769487,0.0,0.0,0.1470997482538223,-9.149603843688965,0.1470997482538223
4.551480293273926,0.0034906584769487,0.0,0.0,0.127486452460289,-9.208444595336914,0.127486452460289
4.556469678878784,0.0,0.0,0.0,0.127486452460289,-9.188830375671388,0.127486452460289
4.561460018157959,0.0,0.0,0.0,0.127486452460289,-9.188830375671388,0.1470997482538223
4.566449403762817,0.0034906584769487,0.0017453292384743,0.0,0.1470997482538223,-9.129990577697754,0.1667130440473556
4.571438789367676,0.0,0.0,0.0017453292384743,0.107873149216175,-9.110377311706545,0.107873149216175
4.576429128646851,0.0,0.0034906584769487,-0.0017453292384743,0.1470997482538223,-9.149603843688965,0.1470997482538223
4.58141827583313,0.0,0.0034906584769487,-0.0017453292384743,0.127486452460289,-9.169217109680176,0.127486452460289
4.586408853530884,0.0,0.0,0.0,0.107873149216175,-9.169217109680176,0.1470997482538223
4.591398239135742,0.0034906584769487,0.0,0.0,0.107873149216175,-9.208444595336914,0.1667130440473556
4.596388578414917,-0.0034906584769487,0.0,0.0,0.1470997482538223,-9.228057861328123,0.127486452460289
4.601377964019775,0.0034906584769487,0.0,0.0,0.127486452460289,-9.149603843688965,0.127486452460289
4.606367111206055,0.0,0.0034906584769487,-0.0017453292384743,0.1470997482538223,-9.169217109680176,0.107873149216175
4.611357688903809,0.0017453292384743,0.0,0.0,0.1667130440473556,-9.149603843688965,0.1667130440473556
4.616346836090088,0.0,0.0017453292384743,0.0017453292384743,0.1470997482538223,-9.129990577697754,0.1470997482538223
4.621337175369263,0.0,0.0017453292384743,0.0,0.1470997482538223,-9.188830375671388,0.1470997482538223
4.626326322555542,0.0017453292384743,0.0,0.0,0.1470997482538223,-9.188830375671388,0.1470997482538223
4.631316900253296,0.0,0.0,0.0,0.1470997482538223,-9.208444595336914,0.0882598459720611
4.636306047439575,0.0,0.0034906584769487,0.0,0.107873149216175,-9.188830375671388,0.1667130440473556
4.64129638671875,0.0,0.0,0.0034906584769487,0.1470997482538223,-9.149603843688965,0.1470997482538223
4.646285533905029,0.0017453292384743,0.0,0.0,0.127486452460289,-9.149603843688965,0.127486452460289
4.651274681091309,0.0,0.0,0.0,0.1470997482538223,-9.169217109680176,0.127486452460289
4.656265020370483,0.0017453292384743,0.0,-0.0017453292384743,0.1470997482538223,-9.149603843688965,0.107873149216175
4.661254405975342,0.0,0.0017453292384743,0.0,0.1470997482538223,-9.208444595336914,0.107873149216175
4.666244268417358,0.0017453292384743,0.0052359877154231,-0.0017453292384743,0.127486452460289,-9.169217109680176,0.1470997482538223
4.671233892440796,0.0017453292384743,0.0017453292384743,0.0,0.1470997482538223,-9.188830375671388,0.127486452460289
4.676223993301392,0.0,0.0052359877154231,0.0,0.1470997482538223,-9.169217109680176,0.1470997482538223
4.68121337890625,-0.0017453292384743,0.0034906584769487,0.0017453292384743,0.1470997482538223,-9.129990577697754,0.1470997482538223
4.686203479766846,0.0017453292384743,0.0,0.0,0.1667130440473556,-9.129990577697754,0.1470997482538223
4.691192865371704,0.0017453292384743,0.0017453292384743,0.0,0.127486452460289,-9.149603843688965,0.1863263398408889
4.696182012557983,0.0,0.0052359877154231,-0.0017453292384743,0.1470997482538223,-9.208444595336914,0.1667130440473556
4.701172351837158,0.0034906584769487,0.0017453292384743,0.0,0.127486452460289,-9.208444595336914,0.107873149216175
4.706161260604858,0.0017453292384743,0.0,0.0034906584769487,0.1470997482538223,-9.208444595336914,0.127486452460289
4.711150884628296,0.0,0.0034906584769487,-0.0017453292384743,0.127486452460289,-9.169217109680176,0.1470997482538223
4.7161407470703125,0.0017453292384743,0.0017453292384743,-0.0017453292384743,0.127486452460289,-9.169217109680176,0.127486452460289
4.721130132675171,0.0,0.0017453292384743,0.0,0.127486452460289,-9.169217109680176,0.1470997482538223
4.7261199951171875,0.0,0.0,0.0,0.1470997482538223,-9.169217109680176,0.1667130440473556
4.731109380722046,0.0,0.0,-0.0017453292384743,0.127486452460289,-9.208444595336914,0.1470997482538223
4.736099481582642,0.0,0.0034906584769487,0.0,0.1470997482538223,-9.228057861328123,0.127486452460289
4.741088628768921,0.0,0.0069813169538974,0.0,0.127486452460289,-9.188830375671388,0.1470997482538223
4.7460777759552,0.0,0.0017453292384743,0.0,0.127486452460289,-9.129990577697754,0.1470997482538223
4.751067876815796,0.0034906584769487,0.0,0.0,0.127486452460289,-9.149603843688965,0.1470997482538223
4.756057024002075,0.0,0.0,0.0,0.127486452460289,-9.169217109680176,0.127486452460289
4.76104736328125,0.0,0.0034906584769487,-0.0017453292384743,0.127486452460289,-9.169217109680176,0.1470997482538223
4.76603627204895,0.0017453292384743,-0.0034906584769487,0.0052359877154231,0.127486452460289,-9.208444595336914,0.1667130440473556
4.771026372909546,0.0,-0.0052359877154231,0.0,0.107873149216175,-9.188830375671388,0.1470997482538223
4.776015520095825,0.0,0.0017453292384743,0.0,0.1667130440473556,-9.188830375671388,0.1470997482538223
4.781005620956421,0.0,0.0017453292384743,0.0017453292384743,0.127486452460289,-9.188830375671388,0.1667130440473556
4.7859947681427,0.0,0.0034906584769487,0.0,0.1470997482538223,-9.149603843688965,0.1667130440473556
4.790984869003296,0.0,0.0034906584769487,0.0,0.127486452460289,-9.149603843688965,0.1667130440473556
4.795973777770996,0.0,0.0,0.0,0.1667130440473556,-9.149603843688965,0.127486452460289
4.8009631633758545,0.0017453292384743,0.0,0.0034906584769487,0.1470997482538223,-9.228057861328123,0.127486452460289
4.805953025817871,0.0,0.0034906584769487,0.0,0.127486452460289,-9.188830375671388,0.1667130440473556
4.81094217300415,0.0,0.0017453292384743,-0.0017453292384743,0.107873149216175,-9.188830375671388,0.1470997482538223
4.815932035446167,0.0017453292384743,-0.0017453292384743,0.0,0.1470997482538223,-9.188830375671388,0.127486452460289
4.820921182632446,0.0034906584769487,0.0,-0.0034906584769487,0.127486452460289,-9.149603843688965,0.1470997482538223
4.825911283493042,0.0,0.0,0.0,0.127486452460289,-9.149603843688965,0.127486452460289
4.830900430679321,-0.0034906584769487,0.0104719754308462,0.0,0.1470997482538223,-9.149603843688965,0.1667130440473556
4.8358893394470215,0.0034906584769487,0.0,0.0,0.107873149216175,-9.169217109680176,0.127486452460289
4.840879678726196,0.0,0.0052359877154231,-0.0017453292384743,0.107873149216175,-9.169217109680176,0.127486452460289
4.845868349075317,0.0017453292384743,0.0034906584769487,0.0017453292384743,0.127486452460289,-9.188830375671388,0.1667130440473556
4.850858449935913,0.0017453292384743,0.0052359877154231,0.0,0.107873149216175,-9.169217109680176,0.1470997482538223
4.855847358703613,0.0,-0.0017453292384743,0.0,0.1470997482538223,-9.129990577697754,0.1470997482538223
4.860837697982788,0.0017453292384743,0.0,0.0017453292384743,0.1470997482538223,-9.169217109680176,0.1470997482538223
4.865826368331909,0.0,0.0017453292384743,0.0,0.1863263398408889,-9.149603843688965,0.1470997482538223
4.8708155155181885,0.0,0.0017453292384743,0.0,0.127486452460289,-9.169217109680176,0.1667130440473556
4.875805377960205,0.0,0.0,0.0,0.1470997482538223,-9.169217109680176,0.1470997482538223
4.880794286727905,0.0,0.0,-0.0017453292384743,0.1470997482538223,-9.188830375671388,0.1470997482538223
4.885784387588501,0.0017453292384743,-0.0017453292384743,0.0,0.127486452460289,-9.188830375671388,0.127486452460289
4.890773296356201,0.0,-0.0017453292384743,0.0,0.107873149216175,-9.169217109680176,0.1667130440473556
4.895763158798218,0.0,0.0034906584769487,0.0,0.1470997482538223,-9.169217109680176,0.1667130440473556
4.900752067565918,0.0,0.0,0.0017453292384743,0.1470997482538223,-9.129990577697754,0.1470997482538223
4.905742168426514,0.0017453292384743,0.0017453292384743,0.0017453292384743,0.127486452460289,-9.149603843688965,0.1470997482538223
4.910730838775635,0.0017453292384743,0.0017453292384743,0.0,0.1667130440473556,-9.188830375671388,0.1667130440473556
4.915719985961914,0.0017453292384743,0.0034906584769487,0.0,0.127486452460289,-9.188830375671388,0.1667130440473556
4.92071008682251,0.0052359877154231,0.0,0.0052359877154231,0.127486452460289,-9.208444595336914,0.107873149216175
4.925698757171631,0.0017453292384743,0.0,0.0,0.1470997482538223,-9.188830375671388,0.1667130440473556
4.9306886196136475,0.0,0.0017453292384743,-0.0052359877154231,0.1470997482538223,-9.208444595336914,0.1470997482538223
4.935677528381348,0.0,0.0052359877154231,0.0,0.127486452460289,-9.149603843688965,0.1470997482538223
4.940667390823364,0.0,0.0034906584769487,0.0,0.127486452460289,-9.149603843688965,0.1667130440473556
4.9456562995910645,0.0017453292384743,0.0,0.0034906584769487,0.107873149216175,-9.169217109680176,0.1470997482538223
4.950645208358765,0.0,0.0034906584769487,-0.0017453292384743,0.107873149216175,-9.188830375671388,0.1470997482538223
4.955635070800781,0.0,0.0034906584769487,0.0,0.127486452460289,-9.228057861328123,0.1470997482538223
4.9606239795684814,-0.0017453292384743,0.0034906584769487,0.0,0.127486452460289,-9.228057861328123,0.1470997482538223
4.965614080429077,0.0,0.0,0.0017453292384743,0.1470997482538223,-9.169217109680176,0.1667130440473556
4.970602750778198,0.0,0.0,-0.0017453292384743,0.107873149216175,-9.188830375671388,0.1470997482538223
4.975592613220215,0.0,0.0017453292384743,0.0,0.127486452460289,-9.149603843688965,0.1470997482538223
4.980581283569336,0.0,0.0052359877154231,0.0034906584769487,0.127486452460289,-9.149603843688965,0.1863263398408889
4.9855711460113525,0.0017453292384743,0.0052359877154231,0.0017453292384743,0.107873149216175,-9.208444595336914,0.1470997482538223
4.990560054779053,0.0,0.0017453292384743,0.0,0.127486452460289,-9.208444595336914,0.1470997482538223
4.99554967880249,0.0,0.0,0.0,0.127486452460289,-9.208444595336914,0.127486452460289
5.00053858757019,0.0017453292384743,0.0017453292384743,0.0017453292384743,0.1470997482538223,-9.149603843688965,0.127486452460289
5.005527496337891,-0.0017453292384743,0.0,0.0,0.107873149216175,-9.110377311706545,0.1470997482538223
5.010517358779907,0.0,0.0052359877154231,0.0,0.127486452460289,-9.110377311706545,0.1667130440473556
5.015506029129028,0.0034906584769487,0.0052359877154231,0.0,0.127486452460289,-9.149603843688965,0.1470997482538223
5.0204949378967285,0.0,0.0017453292384743,-0.0017453292384743,0.1667130440473556,-9.208444595336914,0.1470997482538223
5.025484561920166,0.0017453292384743,0.0034906584769487,0.0,0.127486452460289,-9.188830375671388,0.107873149216175
5.030473470687866,0.0,0.0,0.0,0.127486452460289,-9.188830375671388,0.107873149216175
5.035463094711304,0.0017453292384743,0.0034906584769487,0.0,0.1470997482538223,-9.208444595336914,0.1470997482538223
5.04045295715332,0.0,0.0017453292384743,0.0,0.1470997482538223,-9.129990577697754,0.1470997482538223
5.045441627502441,0.0,0.0017453292384743,0.0,0.1470997482538223,-9.129990577697754,0.107873149216175
5.0504302978515625,0.0,0.0,0.0,0.1470997482538223,-9.188830375671388,0.107873149216175
5.055420160293579,0.0034906584769487,0.0,0.0,0.1470997482538223,-9.169217109680176,0.107873149216175
5.0604088306427,0.0052359877154231,0.0052359877154231,0.0017453292384743,0.127486452460289,-9.188830375671388,0.127486452460289
5.0653977394104,0.0,0.0,0.0,0.127486452460289,-9.208444595336914,0.107873149216175
5.070387363433838,0.0017453292384743,0.0,0.0,0.127486452460289,-9.169217109680176,0.1470997482538223
5.075376272201538,0.0,0.0,0.0,0.1470997482538223,-9.169217109680176,0.127486452460289
5.0803656578063965,0.0,0.0017453292384743,-0.0017453292384743,0.1470997482538223,-9.149603843688965,0.127486452460289
5.085354566574097,0.0,0.0034906584769487,0.0,0.1470997482538223,-9.169217109680176,0.1470997482538223
5.090344190597534,0.0017453292384743,0.0,-0.0017453292384743,0.127486452460289,-9.149603843688965,0.107873149216175
5.095333099365234,0.0,0.0,-0.0017453292384743,0.1667130440473556,-9.228057861328123,0.1667130440473556
5.100322484970093,0.0034906584769487,0.0017453292384743,0.0034906584769487,0.1470997482538223,-9.188830375671388,0.1470997482538223
5.105311155319214,0.0,0.0017453292384743,0.0,0.127486452460289,-9.169217109680176,0.1470997482538223
5.1103010177612305,0.0,0.0,0.0,0.1470997482538223,-9.169217109680176,0.107873149216175
5.115289688110352,0.0,0.0034906584769487,-0.0052359877154231,0.1470997482538223,-9.110377311706545,0.1470997482538223
5.120278358459473,0.0,0.0069813169538974,0.0017453292384743,0.127486452460289,-9.149603843688965,0.1667130440473556
5.125267744064331,0.0,0.0,0.0,0.1470997482538223,-9.188830375671388,0.1470997482538223
5.13025689125061,0.0017453292384743,0.0,0.0,0.1470997482538223,-9.188830375671388,0.127486452460289
5.135246276855469,0.0017453292384743,0.0034906584769487,-0.0034906584769487,0.1470997482538223,-9.228057861328123,0.127486452460289
5.14023494720459,0.0,0.0,0.0017453292384743,0.1470997482538223,-9.188830375671388,0.1470997482538223
5.145223379135132,0.0,0.0,0.0,0.1470997482538223,-9.169217109680176,0.1470997482538223
5.150213003158569,0.0,0.0017453292384743,0.0,0.127486452460289,-9.149603843688965,0.1470997482538223
5.155202627182007,0.0,0.0034906584769487,0.0017453292384743,0.1470997482538223,-9.110377311706545,0.1470997482538223
5.160191297531128,-0.0017453292384743,0.0052359877154231,0.0,0.127486452460289,-9.188830375671388,0.1667130440473556
5.165179967880249,0.0,0.0,0.0052359877154231,0.1470997482538223,-9.208444595336914,0.1470997482538223
5.170169353485107,0.0,0.0017453292384743,0.0,0.1470997482538223,-9.208444595336914,0.1470997482538223
5.175158262252808,0.0017453292384743,0.0034906584769487,-0.0017453292384743,0.127486452460289,-9.188830375671388,0.127486452460289
5.180147647857666,0.0,0.0017453292384743,0.0,0.127486452460289,-9.188830375671388,0.1470997482538223
5.185136318206787,0.0,-0.0017453292384743,0.0,0.107873149216175,-9.149603843688965,0.1470997482538223
5.190125465393066,0.0017453292384743,0.0,0.0017453292384743,0.1667130440473556,-9.129990577697754,0.1470997482538223
5.1951141357421875,0.0052359877154231,0.0052359877154231,0.0,0.1470997482538223,-9.188830375671388,0.1470997482538223
5.200103282928467,-0.0017453292384743,0.0034906584769487,-0.0017453292384743,0.1470997482538223,-9.169217109680176,0.127486452460289
5.205092430114746,0.0,0.0052359877154231,0.0,0.1470997482538223,-9.208444595336914,0.127486452460289
5.210081100463867,0.0,0.0069813169538974,0.0,0.1470997482538223,-9.208444595336914,0.1470997482538223
5.215070486068726,-0.0017453292384743,0.0,0.0,0.127486452460289,-9.129990577697754,0.1470997482538223
5.220059156417847,0.0,0.0052359877154231,-0.0017453292384743,0.1470997482538223,-9.149603843688965,0.1667130440473556
5.225047588348389,0.0,0.0017453292384743,-0.0034906584769487,0.127486452460289,-9.129990577697754,0.127486452460289
5.230036973953247,0.0,0.0052359877154231,0.0,0.127486452460289,-9.149603843688965,0.1470997482538223
5.235025644302368,0.0,0.0,0.0,0.1470997482538223,-9.188830375671388,0.1470997482538223
5.2400195598602295,0.0,0.0034906584769487,0.0017453292384743,0.1470997482538223,-9.188830375671388,0.127486452460289
5.245009660720825,0.0,0.0034906584769487,0.0,0.1470997482538223,-9.228057861328123,0.1470997482538223
5.250000953674316,-0.0017453292384743,0.0,-0.0017453292384743,0.1470997482538223,-9.149603843688965,0.127486452460289
5.254991292953491,0.0,0.0017453292384743,0.0017453292384743,0.127486452460289,-9.149603843688965,0.1667130440473556
5.259982347488403,0.0,0.0,0.0,0.1470997482538223,-9.129990577697754,0.127486452460289
5.264972686767578,0.0034906584769487,0.0,0.0,0.127486452460289,-9.169217109680176,0.1470997482538223
5.269962549209595,-0.0034906584769487,0.0,0.0,0.127486452460289,-9.169217109680176,0.1470997482538223
5.274954080581665,0.0017453292384743,0.0,0.0,0.127486452460289,-9.188830375671388,0.127486452460289
5.279944181442261,0.0,0.0052359877154231,0.0,0.107873149216175,-9.188830375671388,0.107873149216175
5.284935235977173,-0.0017453292384743,0.0034906584769487,-0.0017453292384743,0.127486452460289,-9.188830375671388,0.107873149216175
5.289925575256348,0.0,0.0,0.0034906584769487,0.1470997482538223,-9.169217109680176,0.127486452460289
5.29491662979126,0.0,0.0,0.0,0.127486452460289,-9.129990577697754,0.1863263398408889
5.2999067306518555,0.0017453292384743,0.0,0.0,0.1470997482538223,-9.188830375671388,0.1667130440473556
5.304898023605347,-0.0017453292384743,0.0,-0.0017453292384743,0.1667130440473556,-9.208444595336914,0.1470997482538223
5.309888124465942,0.0017453292384743,0.0017453292384743,0.0,0.127486452460289,-9.208444595336914,0.1470997482538223
5.3148791790008545,0.0034906584769487,0.0052359877154231,0.0017453292384743,0.127486452460289,-9.228057861328123,0.127486452460289
5.31986927986145,0.0052359877154231,0.0,0.0,0.127486452460289,-9.228057861328123,0.127486452460289
5.324860572814941,0.0,-0.0017453292384743,0.0,0.127486452460289,-9.188830375671388,0.1470997482538223
5.329850673675537,0.0,0.0052359877154231,0.0,0.1470997482538223,-9.169217109680176,0.127486452460289
5.334840774536133,0.0,0.0052359877154231,0.0034906584769487,0.127486452460289,-9.149603843688965,0.127486452460289
5.339831829071045,0.0,0.0,0.0017453292384743,0.127486452460289,-9.149603843688965,0.127486452460289
5.344821929931641,0.0017453292384743,0.0017453292384743,0.0,0.127486452460289,-9.188830375671388,0.1470997482538223
5.349812984466553,0.0017453292384743,0.0,0.0,0.127486452460289,-9.169217109680176,0.127486452460289
5.354803085327148,0.0052359877154231,0.0,0.0017453292384743,0.127486452460289,-9.208444595336914,0.1470997482538223
5.359793186187744,-0.0017453292384743,0.0034906584769487,0.0,0.1470997482538223,-9.169217109680176,0.127486452460289
5.364784479141235,-0.0017453292384743,0.0069813169538974,-0.0017453292384743,0.1470997482538223,-9.169217109680176,0.127486452460289
5.369774341583252,0.0,0.0052359877154231,0.0,0.1667130440473556,-9.169217109680176,0.127486452460289
5.374765396118164,0.0052359877154231,0.0,0.0017453292384743,0.1470997482538223,-9.129990577697754,0.1470997482538223
5.37975549697876,0.0,0.0,0.0,0.1470997482538223,-9.149603843688965,0.1470997482538223
5.384746551513672,0.0,0.0034906584769487,0.0,0.127486452460289,-9.149603843688965,0.1470997482538223
5.389736890792847,0.0,0.0017453292384743,-0.0017453292384743,0.127486452460289,-9.188830375671388,0.1470997482538223
5.394726753234863,0.0,0.0034906584769487,0.0,0.1470997482538223,-9.188830375671388,0.1470997482538223
5.399717807769775,0.0,0.0017453292384743,-0.0017453292384743,0.127486452460289,-9.169217109680176,0.1470997482538223
5.404707670211792,0.0,0.0,0.0017453292384743,0.1470997482538223,-9.169217109680176,0.1667130440473556
5.409698724746704,0.0,0.0017453292384743,0.0,0.127486452460289,-9.149603843688965,0.127486452460289
5.414688587188721,0.0,0.0,0.0,0.107873149216175,-9.188830375671388,0.127486452460289
5.419679880142212,0.0017453292384743,0.0017453292384743,0.0,0.127486452460289,-9.188830375671388,0.1470997482538223
5.424669981002808,0.0,0.0,0.0017453292384743,0.127486452460289,-9.188830375671388,0.127486452460289
5.429660797119141,0.0,0.0034906584769487,0.0017453292384743,0.1470997482538223,-9.208444595336914,0.107873149216175
5.434650897979736,0.0017453292384743,0.0034906584769487,0.0017453292384743,0.1470997482538223,-9.149603843688965,0.1667130440473556
5.43964147567749,0.0,0.0034906584769487,0.0034906584769487,0.107873149216175,-9.149603843688965,0.127486452460289
5.444631814956665,-0.0017453292384743,0.0,-0.0017453292384743,0.1470997482538223,-9.149603843688965,0.1667130440473556
5.449621915817261,0.0,0.0052359877154231,0.0,0.127486452460289,-9.149603843688965,0.107873149216175
5.454612731933594,0.0,0.0034906584769487,0.0,0.1667130440473556,-9.169217109680176,0.127486452460289
5.4596028327941895,0.0,0.0069813169538974,0.0,0.1470997482538223,-9.208444595336914,0.1470997482538223
5.4645936489105225,0.0017453292384743,0.0017453292384743,0.0017453292384743,0.1470997482538223,-9.208444595336914,0.127486452460289
5.469583749771118,-0.0017453292384743,0.0,0.0,0.107873149216175,-9.169217109680176,0.127486452460289
5.474574327468872,0.0,0.0052359877154231,-0.0017453292384743,0.127486452460289,-9.188830375671388,0.127486452460289
5.479564428329468,0.0,0.0017453292384743,0.0,0.127486452460289,-9.188830375671388,0.127486452460289
5.484554290771484,0.0,0.0034906584769487,0.0,0.127486452460289,-9.129990577697754,0.1470997482538223
5.4895453453063965,0.0,0.0069813169538974,0.0,0.127486452460289,-9.149603843688965,0.107873149216175
5.494535684585571,0.0017453292384743,0.0,0.0052359877154231,0.127486452460289,-9.149603843688965,0.107873149216175
5.499526023864746,-0.0017453292384743,0.0034906584769487,-0.0017453292384743,0.127486452460289,-9.208444595336914,0.1470997482538223
5.504516124725342,0.0,0.0017453292384743,0.0,0.1667130440473556,-9.208444595336914,0.1470997482538223
5.509506940841675,0.0,-0.0034906584769487,0.0,0.1470997482538223,-9.169217109680176,0.1667130440473556
5.514496803283691,0.0,0.0017453292384743,0.0,0.127486452460289,-9.208444595336914,0.1470997482538223
5.519486665725708,0.0017453292384743,0.0052359877154231,0.0017453292384743,0.1667130440473556,-9.149603843688965,0.1667130440473556
5.524477481842041,0.0,0.0,0.0017453292384743,0.1667130440473556,-9.169217109680176,0.127486452460289
5.529467582702637,0.0052359877154231,0.0,0.0,0.1470997482538223,-9.188830375671388,0.127486452460289
5.53445839881897,0.0,0.0017453292384743,0.0,0.107873149216175,-9.188830375671388,0.127486452460289
5.539448261260986,0.0,0.0,-0.0017453292384743,0.127486452460289,-9.188830375671388,0.1667130440473556
5.544439077377319,0.0034906584769487,0.0017453292384743,-0.0017453292384743,0.127486452460289,-9.169217109680176,0.127486452460289
5.549428939819336,0.0,0.0,0.0,0.107873149216175,-9.169217109680176,0.127486452460289
5.554419994354248,0.0,0.0,-0.0034906584769487,0.127486452460289,-9.149603843688965,0.1667130440473556
5.5594096183776855,0.0,0.0052359877154231,0.0,0.127486452460289,-9.129990577697754,0.1470997482538223
5.564400672912598,0.0,0.0052359877154231,0.0,0.127486452460289,-9.188830375671388,0.127486452460289
5.569390296936035,0.0,0.0017453292384743,0.0034906584769487,0.127486452460289,-9.208444595336914,0.1470997482538223
5.574380159378052,0.0017453292384743,0.0,0.0,0.127486452460289,-9.208444595336914,0.1667130440473556
5.579370975494385,0.0,0.0,0.0,0.1470997482538223,-9.208444595336914,0.127486452460289
5.584360837936401,0.0,0.0,0.0,0.1470997482538223,-9.129990577697754,0.1667130440473556
5.589351654052734,0.0,0.0,0.0,0.1667130440473556,-9.129990577697754,0.127486452460289
5.594341516494751,0.0052359877154231,0.0017453292384743,-0.0017453292384743,0.1667130440473556,-9.129990577697754,0.127486452460289
5.599331378936768,0.0,0.0017453292384743,0.0017453292384743,0.1470997482538223,-9.169217109680176,0.1667130440473556
5.6043219566345215,0.0,0.0034906584769487,-0.0017453292384743,0.127486452460289,-9.208444595336914,0.127486452460289
5.609311819076538,0.0,0.0017453292384743,-0.0017453292384743,0.127486452460289,-9.208444595336914,0.127486452460289
5.61430287361145,0.0,0.0,0.0052359877154231,0.1470997482538223,-9.188830375671388,0.107873149216175
5.619292497634888,0.0,0.0,0.0,0.1470997482538223,-9.169217109680176,0.127486452460289
5.624283075332642,0.0,0.0,0.0017453292384743,0.1470997482538223,-9.149603843688965,0.1667130440473556
5.629272937774658,0.0,0.0052359877154231,0.0,0.127486452460289,-9.149603843688965,0.1667130440473556
5.634263753890991,0.0,0.0,0.0,0.127486452460289,-9.188830375671388,0.1667130440473556
5.639253377914429,0.0,0.0,0.0017453292384743,0.1470997482538223,-9.247671127319336,0.107873149216175
5.644243240356445,0.0,0.0017453292384743,-0.0017453292384743,0.1667130440473556,-9.208444595336914,0.0882598459720611
5.649233818054199,0.0017453292384743,0.0017453292384743,0.0,0.1470997482538223,-9.208444595336914,0.127486452460289
5.654223680496216,0.0,0.0,-0.0017453292384743,0.107873149216175,-9.188830375671388,0.127486452460289
5.65921425819397,0.0,0.0,0.0,0.127486452460289,-9.169217109680176,0.1470997482538223
5.664204120635986,0.0,0.0,0.0017453292384743,0.127486452460289,-9.169217109680176,0.127486452460289
5.66919469833374,0.0,0.0052359877154231,-0.0017453292384743,0.127486452460289,-9.188830375671388,0.1470997482538223
5.674184322357178,0.0017453292384743,0.0017453292384743,0.0017453292384743,0.1470997482538223,-9.188830375671388,0.1470997482538223
5.679175138473511,0.0,0.0,0.0,0.1470997482538223,-9.208444595336914,0.1667130440473556
5.684164762496948,0.0,0.0034906584769487,0.0,0.1470997482538223,-9.188830375671388,0.107873149216175
5.689154624938965,0.0,0.0,-0.0034906584769487,0.127486452460289,-9.169217109680176,0.127486452460289
5.694145202636719,0.0017453292384743,0.0,0.0,0.1470997482538223,-9.149603843688965,0.1470997482538223
5.699134826660156,0.0017453292384743,0.0,-0.0017453292384743,0.1470997482538223,-9.129990577697754,0.1470997482538223
5.70412540435791,0.0,0.0,0.0017453292384743,0.127486452460289,-9.169217109680176,0.107873149216175
5.709115266799927,0.0017453292384743,0.0017453292384743,0.0,0.127486452460289,-9.208444595336914,0.127486452460289
5.71410608291626,0.0,0.0017453292384743,0.0,0.1470997482538223,-9.188830375671388,0.107873149216175
5.719095468521118,0.0017453292384743,0.0,0.0,0.1470997482538223,-9.208444595336914,0.127486452460289
5.724085092544556,0.0017453292384743,0.0052359877154231,0.0,0.1470997482538223,-9.208444595336914,0.127486452460289
5.72907567024231,0.0,0.0017453292384743,0.0,0.1470997482538223,-9.169217109680176,0.1667130440473556
5.734065294265747,0.0,0.0034906584769487,0.0,0.1470997482538223,-9.149603843688965,0.1470997482538223
5.739055871963501,0.0,0.0,-0.0017453292384743,0.1470997482538223,-9.169217109680176,0.1470997482538223
5.744045734405518,0.0,0.0034906584769487,0.0,0.1470997482538223,-9.188830375671388,0.127486452460289
5.749036073684692,0.0052359877154231,0.0034906584769487,0.0017453292384743,0.127486452460289,-9.208444595336914,0.0882598459720611
5.754025936126709,-0.0017453292384743,0.0017453292384743,0.0,0.127486452460289,-9.228057861328123,0.0882598459720611
5.759015083312988,0.0017453292384743,0.0,0.0017453292384743,0.1470997482538223,-9.169217109680176,0.127486452460289
5.7640061378479,0.0052359877154231,0.0017453292384743,0.0017453292384743,0.1470997482538223,-9.169217109680176,0.127486452460289
