timestamp,angular_velocity.x,angular_velocity.y,angular_velocity.z,linear_acceleration.x,linear_acceleration.y,linear_acceleration.z
0.0,9.72897032625042e-06,-2.658932498889044e-05,-1.6141464584507048e-05,0.1910353600978851,-9.745745658874512,-0.1374019235372543
0.004999876022338867,9.72897032625042e-06,0.0034640692174434,0.0017291877884417,0.1911194324493408,-9.765008926391602,-0.1178060322999954
0.009999990463256836,-0.0017356002936139,0.0034640692174434,-1.6141464584507048e-05,0.1710847020149231,-9.706830024719238,-0.1570247411727905
0.015001296997070312,9.72897032625042e-06,-2.658932498889044e-05,-1.6141464584507048e-05,0.1717458665370941,-9.70465087890625,-0.0970380008220672
0.020000934600830078,9.72897032625042e-06,-2.658932498889044e-05,-1.6141464584507048e-05,0.1715254783630371,-9.705377578735352,-0.1170335859060287
0.02500128746032715,9.72897032625042e-06,0.0017187398625537,-1.6141464584507048e-05,0.1514384895563125,-9.68644905090332,-0.1370560675859451
0.030000686645507812,9.72897032625042e-06,0.0017187398625537,0.0017291877884417,0.1914443075656891,-9.685778617858888,-0.1362029016017913
0.035001277923583984,9.72897032625042e-06,0.0052093984559178,-1.6141464584507048e-05,0.1713891625404358,-9.725366592407228,-0.1174332648515701
0.040001869201660156,-0.0017356002936139,-0.0017719186143949,-1.6141464584507048e-05,0.1513862460851669,-9.725701332092283,-0.1178598403930664
0.045001983642578125,9.72897032625042e-06,0.0017187398625537,0.0017291877884417,0.1710324585437774,-9.746081352233888,-0.1378285139799118
0.05000162124633789,9.72897032625042e-06,-2.658932498889044e-05,-1.6141464584507048e-05,0.1714732348918914,-9.74462890625,-0.09783735871315
0.05500173568725586,9.72897032625042e-06,-2.658932498889044e-05,0.0034745170269161,0.1709483861923217,-9.726819038391112,-0.1574244201183319
0.06000256538391113,0.0017550581833347,0.0034640692174434,-1.6141464584507048e-05,0.1913920640945434,-9.725030899047852,-0.1170066744089126
0.06500244140625,9.72897032625042e-06,-2.658932498889044e-05,-1.6141464584507048e-05,0.1913079917430877,-9.705767631530762,-0.1366025656461715
0.07000231742858887,-0.0017356002936139,0.0034640692174434,-1.6141464584507048e-05,0.1916124522686004,-9.72430419921875,-0.0970110893249511
0.07500314712524414,9.72897032625042e-06,-2.658932498889044e-05,-1.6141464584507048e-05,0.1515225619077682,-9.70571231842041,-0.117460161447525
0.08000326156616211,9.72897032625042e-06,0.0034640692174434,-1.6141464584507048e-05,0.1713891625404358,-9.725366592407228,-0.1174332648515701
0.08500289916992188,0.0017550581833347,-2.658932498889044e-05,0.0034745170269161,0.1716617941856384,-9.685388565063477,-0.1166339218616485
0.09000301361083984,9.72897032625042e-06,-2.658932498889044e-05,0.0017291877884417,0.1708961427211761,-9.766070365905762,-0.1382281929254531
0.09500360488891602,9.72897032625042e-06,0.0034640692174434,-1.6141464584507048e-05,0.1517429500818252,-9.704985618591309,-0.0974645763635635
0.10000348091125488,9.72897032625042e-06,-2.658932498889044e-05,0.0034745170269161,0.1709483861923217,-9.726819038391112,-0.1574244201183319
0.10500335693359375,9.72897032625042e-06,-2.658932498889044e-05,0.0017291877884417,0.1517429500818252,-9.704985618591309,-0.0974645763635635
0.11000418663024902,9.72897032625042e-06,-2.658932498889044e-05,0.0034745170269161,0.1718299388885498,-9.72391414642334,-0.0774420946836471
0.11500382423400879,9.72897032625042e-06,0.0034640692174434,0.0034745170269161,0.1710324585437774,-9.746081352233888,-0.1378285139799118
0.12000370025634766,9.72897032625042e-06,-2.658932498889044e-05,0.0017291877884417,0.1711687743663787,-9.726092338562012,-0.1374288350343704
0.12500333786010742,9.72897032625042e-06,-2.658932498889044e-05,0.0034745170269161,0.1912557482719421,-9.745019912719728,-0.117406353354454
0.1300041675567627,9.72897032625042e-06,0.0017187398625537,-1.6141464584507048e-05,0.1913079917430877,-9.705767631530762,-0.1366025656461715
0.13500380516052246,9.72897032625042e-06,0.0017187398625537,-1.6141464584507048e-05,0.1913079917430877,-9.705767631530762,-0.1366025656461715
0.14000368118286133,9.72897032625042e-06,0.0017187398625537,0.0017291877884417,0.1713891625404358,-9.725366592407228,-0.1174332648515701
0.145003080368042,9.72897032625042e-06,-2.658932498889044e-05,-1.6141464584507048e-05,0.1513862460851669,-9.725701332092283,-0.1178598403930664
0.15000414848327637,9.72897032625042e-06,0.0017187398625537,0.0034745170269161,0.1718299388885498,-9.72391414642334,-0.0774420946836471
0.15500378608703613,9.72897032625042e-06,0.0034640692174434,-1.6141464584507048e-05,0.1708120703697204,-9.746808052062988,-0.1578240990638733
0.1600034236907959,0.0017550581833347,-2.658932498889044e-05,-1.6141464584507048e-05,0.1713891625404358,-9.725366592407228,-0.1174332648515701
0.16500329971313477,9.72897032625042e-06,-2.658932498889044e-05,-1.6141464584507048e-05,0.1712528467178344,-9.745355606079102,-0.1178329437971115
0.17000389099121094,-0.0017356002936139,0.0052093984559178,0.0017291877884417,0.1513862460851669,-9.725701332092283,-0.1178598403930664
0.1750032901763916,0.0017550581833347,-2.658932498889044e-05,-1.6141464584507048e-05,0.1917487680912017,-9.704315185546877,-0.0966114103794097
0.18000316619873047,9.72897032625042e-06,-2.658932498889044e-05,-1.6141464584507048e-05,0.1709483861923217,-9.726819038391112,-0.1574244201183319
0.18500256538391113,9.72897032625042e-06,0.0017187398625537,-1.6141464584507048e-05,0.1713891625404358,-9.725366592407228,-0.1174332648515701
0.1900033950805664,9.72897032625042e-06,-2.658932498889044e-05,0.0017291877884417,0.1511658579111099,-9.72642707824707,-0.1378554105758667
0.19500279426574707,0.0017550581833347,-2.658932498889044e-05,-1.6141464584507048e-05,0.1913079917430877,-9.705767631530762,-0.1366025656461715
0.20000267028808594,9.72897032625042e-06,0.0017187398625537,0.0017291877884417,0.1713050901889801,-9.706103324890137,-0.137029156088829
0.20500659942626953,-0.0017356002936139,0.0034640692174434,0.0017291877884417,0.1513862460851669,-9.725701332092283,-0.1178598403930664
0.21001005172729492,9.72897032625042e-06,0.0017187398625537,-1.6141464584507048e-05,0.1916646957397461,-9.685052871704102,-0.116207331418991
0.2150108814239502,-0.0017356002936139,-2.658932498889044e-05,0.0034745170269161,0.1511658579111099,-9.72642707824707,-0.1378554105758667
0.22001147270202637,-0.0017356002936139,-2.658932498889044e-05,0.0017291877884417,0.1513862460851669,-9.725701332092283,-0.1178598403930664
0.22501349449157715,9.72897032625042e-06,-2.658932498889044e-05,0.0052198460325598,0.1512499451637268,-9.74569034576416,-0.1182595193386077
0.23001456260681152,0.0017550581833347,0.0017187398625537,-1.6141464584507048e-05,0.1708961427211761,-9.766070365905762,-0.1382281929254531
0.2350156307220459,-0.0017356002936139,-2.658932498889044e-05,-1.6141464584507048e-05,0.1716095507144928,-9.724639892578123,-0.0974376797676086
0.24001646041870117,9.72897032625042e-06,0.0017187398625537,-1.6141464584507048e-05,0.1520996540784835,-9.684270858764648,-0.0770693272352218
0.24501824378967285,9.72897032625042e-06,0.0052093984559178,0.0052198460325598,0.1713050901889801,-9.706103324890137,-0.137029156088829
0.2500190734863281,9.72897032625042e-06,0.0034640692174434,0.0034745170269161,0.1515225619077682,-9.70571231842041,-0.117460161447525
0.2550199031829834,9.72897032625042e-06,0.0034640692174434,-1.6141464584507048e-05,0.1513021737337112,-9.706438064575195,-0.1374557316303253
0.2600209712982178,-0.0017356002936139,0.0017187398625537,0.0017291877884417,0.1511658579111099,-9.72642707824707,-0.1378554105758667
0.26502275466918945,-0.0017356002936139,0.0017187398625537,0.0017291877884417,0.1510295569896698,-9.746416091918944,-0.138255089521408
0.2700235843658447,9.72897032625042e-06,0.0052093984559178,0.0017291877884417,0.1711165308952331,-9.765344619750977,-0.1182326227426529
0.2750244140625,0.0017550581833347,0.0052093984559178,0.0034745170269161,0.1910876035690307,-9.706494331359863,-0.156598150730133
0.2800261974334717,0.0017550581833347,0.0034640692174434,0.0034745170269161,0.1715254783630371,-9.705377578735352,-0.1170335859060287
0.28502702713012695,-0.0017356002936139,-2.658932498889044e-05,-1.6141464584507048e-05,0.1712210178375244,-9.686841011047363,-0.1566250771284103
0.29002809524536133,9.72897032625042e-06,-2.658932498889044e-05,0.0017291877884417,0.1310788840055465,-9.707500457763672,-0.1578779071569442
0.2950284481048584,9.72897032625042e-06,0.0052093984559178,-1.6141464584507048e-05,0.1517429500818252,-9.704985618591309,-0.0974645763635635
0.3000302314758301,0.0017550581833347,-0.003517247736454,0.0052198460325598,0.1712528467178344,-9.745355606079102,-0.1178329437971115
0.30503129959106445,-0.0017356002936139,0.0034640692174434,-1.6141464584507048e-05,0.1517429500818252,-9.704985618591309,-0.0974645763635635
0.3100316524505615,0.0017550581833347,0.0017187398625537,0.0034745170269161,0.1509454697370529,-9.727153778076172,-0.1578509956598281
0.3150336742401123,9.72897032625042e-06,-2.658932498889044e-05,0.0017291877884417,0.1710324585437774,-9.746081352233888,-0.1378285139799118
0.3200342655181885,9.72897032625042e-06,-2.658932498889044e-05,0.0017291877884417,0.1513021737337112,-9.706438064575195,-0.1374557316303253
0.32503485679626465,9.72897032625042e-06,0.0017187398625537,0.0017291877884417,0.1713050901889801,-9.706103324890137,-0.137029156088829
0.3300356864929199,9.72897032625042e-06,0.0052093984559178,-1.6141464584507048e-05,0.1510295569896698,-9.746416091918944,-0.138255089521408
0.3350372314453125,9.72897032625042e-06,-2.658932498889044e-05,-1.6141464584507048e-05,0.1713050901889801,-9.706103324890137,-0.137029156088829
0.34003782272338867,9.72897032625042e-06,0.0034640692174434,-1.6141464584507048e-05,0.1510295569896698,-9.746416091918944,-0.138255089521408
0.34503889083862305,9.72897032625042e-06,0.0017187398625537,-1.6141464584507048e-05,0.1715254783630371,-9.705377578735352,-0.1170335859060287
0.350039005279541,-0.0017356002936139,0.0017187398625537,0.0017291877884417,0.1515225619077682,-9.70571231842041,-0.117460161447525
0.3550407886505127,9.72897032625042e-06,-2.658932498889044e-05,-1.6141464584507048e-05,0.1915283799171447,-9.705041885375977,-0.1166069954633712
0.36004137992858887,-0.003480929415673,0.0034640692174434,-1.6141464584507048e-05,0.191223919391632,-9.686505317687988,-0.1561984866857528
0.36504197120666504,0.0017550581833347,0.0017187398625537,0.0034745170269161,0.1916124522686004,-9.72430419921875,-0.0970110893249511
0.3700425624847412,-0.0017356002936139,-2.658932498889044e-05,-0.0017614706885069,0.1711165308952331,-9.765344619750977,-0.1182326227426529
0.3750441074371338,-0.0017356002936139,0.0017187398625537,0.0034745170269161,0.1913398206233978,-9.7642822265625,-0.0978104472160339
0.38004469871520996,9.72897032625042e-06,-2.658932498889044e-05,-1.6141464584507048e-05,0.1911716759204864,-9.725756645202637,-0.1370022445917129
0.38504528999328613,9.72897032625042e-06,-2.658932498889044e-05,0.0052198460325598,0.1717458665370941,-9.70465087890625,-0.0970380008220672
0.3900468349456787,9.72897032625042e-06,-2.658932498889044e-05,0.0017291877884417,0.1913920640945434,-9.725030899047852,-0.1170066744089126
0.3950474262237549,9.72897032625042e-06,-2.658932498889044e-05,-1.6141464584507048e-05,0.1516588777303695,-9.685723304748535,-0.1170604974031448
0.40004777908325195,9.72897032625042e-06,-2.658932498889044e-05,0.0017291877884417,0.1509454697370529,-9.727153778076172,-0.1578509956598281
0.4050483703613281,-0.0017356002936139,-2.658932498889044e-05,0.0017291877884417,0.1510295569896698,-9.746416091918944,-0.138255089521408
0.4100487232208252,9.72897032625042e-06,0.0017187398625537,0.0017291877884417,0.1706757545471191,-9.766797065734863,-0.1582237780094146
0.4150502681732178,9.72897032625042e-06,0.0034640692174434,-1.6141464584507048e-05,0.1710324585437774,-9.746081352233888,-0.1378285139799118
0.42005085945129395,9.72897032625042e-06,0.0017187398625537,0.0017291877884417,0.1913920640945434,-9.725030899047852,-0.1170066744089126
0.425051212310791,0.0035003875382244,0.0017187398625537,-1.6141464584507048e-05,0.1716617941856384,-9.685388565063477,-0.1166339218616485
0.4300527572631836,-0.0017356002936139,0.0017187398625537,-1.6141464584507048e-05,0.1713891625404358,-9.725366592407228,-0.1174332648515701
0.43505311012268066,0.0017550581833347,0.0017187398625537,0.0034745170269161,0.1913079917430877,-9.705767631530762,-0.1366025656461715
0.44005370140075684,0.0017550581833347,-2.658932498889044e-05,-1.6141464584507048e-05,0.1711687743663787,-9.726092338562012,-0.1374288350343704
0.4450538158416748,9.72897032625042e-06,0.0017187398625537,0.0017291877884417,0.1714732348918914,-9.74462890625,-0.09783735871315
0.4500553607940674,9.72897032625042e-06,0.0034640692174434,0.0034745170269161,0.1711165308952331,-9.765344619750977,-0.1182326227426529
0.45505547523498535,9.72897032625042e-06,-2.658932498889044e-05,-1.6141464584507048e-05,0.1913079917430877,-9.705767631530762,-0.1366025656461715
0.4600560665130615,9.72897032625042e-06,0.0034640692174434,-1.6141464584507048e-05,0.1515225619077682,-9.70571231842041,-0.117460161447525
0.4650568962097168,-0.0017356002936139,-2.658932498889044e-05,-1.6141464584507048e-05,0.1510817855596542,-9.707164764404297,-0.1574513167142868
0.47005748748779297,0.0017550581833347,0.0017187398625537,0.0052198460325598,0.1918850839138031,-9.684326171875,-0.0962117463350296
0.47505807876586914,9.72897032625042e-06,0.0034640692174434,-1.6141464584507048e-05,0.1913920640945434,-9.725030899047852,-0.1170066744089126
0.4800586700439453,9.72897032625042e-06,-2.658932498889044e-05,0.0034745170269161,0.1711165308952331,-9.765344619750977,-0.1182326227426529
0.4850597381591797,9.72897032625042e-06,0.0017187398625537,-1.6141464584507048e-05,0.1915283799171447,-9.705041885375977,-0.1166069954633712
0.49006009101867676,9.72897032625042e-06,-2.658932498889044e-05,-1.6141464584507048e-05,0.1906786561012268,-9.766461372375488,-0.1577971875667572
0.49506044387817383,-0.003480929415673,0.0034640692174434,0.0017291877884417,0.1716095507144928,-9.724639892578123,-0.0974376797676086
0.5000607967376709,9.72897032625042e-06,-2.658932498889044e-05,-1.6141464584507048e-05,0.1715254783630371,-9.705377578735352,-0.1170335859060287
0.5050621032714844,9.72897032625042e-06,0.0052093984559178,-1.6141464584507048e-05,0.1715254783630371,-9.705377578735352,-0.1170335859060287
0.5100622177124023,9.72897032625042e-06,0.0034640692174434,0.0017291877884417,0.1713050901889801,-9.706103324890137,-0.137029156088829
0.5150625705718994,-0.003480929415673,-2.658932498889044e-05,-1.6141464584507048e-05,0.1310266554355621,-9.74675178527832,-0.1386816799640655
0.5200626850128174,9.72897032625042e-06,0.0034640692174434,0.0017291877884417,0.1515225619077682,-9.70571231842041,-0.117460161447525
0.5250639915466309,0.0017550581833347,-0.0017719186143949,0.0017291877884417,0.1716095507144928,-9.724639892578123,-0.0974376797676086
0.5300641059875488,0.0017550581833347,0.0034640692174434,-1.6141464584507048e-05,0.1714414060115814,-9.686114311218262,-0.1366294920444488
0.5350644588470459,-0.0052262586541473,0.0017187398625537,-1.6141464584507048e-05,0.1915283799171447,-9.705041885375977,-0.1166069954633712
0.5400657653808594,9.72897032625042e-06,0.0017187398625537,0.0034745170269161,0.1913079917430877,-9.705767631530762,-0.1366025656461715
0.5450656414031982,-0.0017356002936139,-0.0017719186143949,-1.6141464584507048e-05,0.1708120703697204,-9.746808052062988,-0.1578240990638733
0.5500659942626953,9.72897032625042e-06,0.0017187398625537,0.0034745170269161,0.1914443075656891,-9.685778617858888,-0.1362029016017913
0.5550661087036133,9.72897032625042e-06,-2.658932498889044e-05,-1.6141464584507048e-05,0.1509454697370529,-9.727153778076172,-0.1578509956598281
0.5600662231445312,9.72897032625042e-06,-2.658932498889044e-05,-1.6141464584507048e-05,0.1912557482719421,-9.745019912719728,-0.117406353354454
0.5650672912597656,9.72897032625042e-06,0.0034640692174434,-1.6141464584507048e-05,0.1510295569896698,-9.746416091918944,-0.138255089521408
0.5700674057006836,0.0017550581833347,0.0017187398625537,0.0034745170269161,0.1516588777303695,-9.685723304748535,-0.1170604974031448
0.575068473815918,9.72897032625042e-06,-2.658932498889044e-05,-1.6141464584507048e-05,0.1715254783630371,-9.705377578735352,-0.1170335859060287
0.5800685882568359,0.0017550581833347,0.0017187398625537,-1.6141464584507048e-05,0.1513021737337112,-9.706438064575195,-0.1374557316303253
0.5850684642791748,9.72897032625042e-06,0.0017187398625537,-1.6141464584507048e-05,0.1917487680912017,-9.704315185546877,-0.0966114103794097
0.5900688171386719,9.72897032625042e-06,-2.658932498889044e-05,-1.6141464584507048e-05,0.1714732348918914,-9.74462890625,-0.09783735871315
0.5950686931610107,9.72897032625042e-06,0.0034640692174434,0.0034745170269161,0.1716095507144928,-9.724639892578123,-0.0974376797676086
0.6000697612762451,9.72897032625042e-06,-2.658932498889044e-05,-1.6141464584507048e-05,0.1711687743663787,-9.726092338562012,-0.1374288350343704
0.6050698757171631,-0.0017356002936139,-2.658932498889044e-05,-1.6141464584507048e-05,0.1514384895563125,-9.68644905090332,-0.1370560675859451
0.610069751739502,9.72897032625042e-06,-0.0017719186143949,-1.6141464584507048e-05,0.1711687743663787,-9.726092338562012,-0.1374288350343704
0.6150698661804199,-0.0017356002936139,0.0034640692174434,0.0034745170269161,0.1516066342592239,-9.724974632263184,-0.0978642553091049
0.6200709342956543,9.72897032625042e-06,-2.658932498889044e-05,-1.6141464584507048e-05,0.1714732348918914,-9.74462890625,-0.09783735871315
0.6250708103179932,9.72897032625042e-06,-0.0017719186143949,-1.6141464584507048e-05,0.1518270224332809,-9.724248886108398,-0.0778686702251434
0.630070686340332,9.72897032625042e-06,-2.658932498889044e-05,-0.0017614706885069,0.1715254783630371,-9.705377578735352,-0.1170335859060287
0.6350717544555664,9.72897032625042e-06,0.0017187398625537,-1.6141464584507048e-05,0.1911716759204864,-9.725756645202637,-0.1370022445917129
0.6400718688964844,9.72897032625042e-06,-2.658932498889044e-05,0.0017291877884417,0.1713050901889801,-9.706103324890137,-0.137029156088829
0.6450717449188232,-0.0017356002936139,0.0034640692174434,-1.6141464584507048e-05,0.1516066342592239,-9.724974632263184,-0.0978642553091049
0.6500720977783203,-0.0017356002936139,0.0034640692174434,0.0017291877884417,0.1513862460851669,-9.725701332092283,-0.1178598403930664
0.6550724506378174,9.72897032625042e-06,0.0052093984559178,-1.6141464584507048e-05,0.1914761364459991,-9.744293212890623,-0.0974107682704925
0.6600725650787354,9.72897032625042e-06,-2.658932498889044e-05,-0.0017614706885069,0.1710324585437774,-9.746081352233888,-0.1378285139799118
0.6650722026824951,9.72897032625042e-06,-2.658932498889044e-05,0.0034745170269161,0.1914761364459991,-9.744293212890623,-0.0974107682704925
0.6700732707977295,0.0017550581833347,0.0034640692174434,0.0017291877884417,0.1708120703697204,-9.746808052062988,-0.1578240990638733
0.6750726699829102,9.72897032625042e-06,-2.658932498889044e-05,-1.6141464584507048e-05,0.1713050901889801,-9.706103324890137,-0.137029156088829
0.6800730228424072,9.72897032625042e-06,-2.658932498889044e-05,0.0017291877884417,0.1714414060115814,-9.686114311218262,-0.1366294920444488
0.6850728988647461,9.72897032625042e-06,0.0034640692174434,0.0017291877884417,0.1711687743663787,-9.726092338562012,-0.1374288350343704
0.6900734901428223,9.72897032625042e-06,-2.658932498889044e-05,-1.6141464584507048e-05,0.1914443075656891,-9.685778617858888,-0.1362029016017913
0.6950733661651611,9.72897032625042e-06,0.0034640692174434,0.0017291877884417,0.1710324585437774,-9.746081352233888,-0.1378285139799118
0.7000732421875,9.72897032625042e-06,0.0017187398625537,0.0017291877884417,0.1508091688156128,-9.747142791748049,-0.1582506746053695
0.7050728797912598,9.72897032625042e-06,-2.658932498889044e-05,-1.6141464584507048e-05,0.1711687743663787,-9.726092338562012,-0.1374288350343704
0.7100734710693359,9.72897032625042e-06,0.0017187398625537,-1.6141464584507048e-05,0.1313833445310592,-9.72603702545166,-0.1182864308357238
0.715073823928833,-0.0017356002936139,0.0034640692174434,-0.0017614706885069,0.1717458665370941,-9.70465087890625,-0.0970380008220672
0.7200736999511719,9.72897032625042e-06,-2.658932498889044e-05,0.0034745170269161,0.1715254783630371,-9.705377578735352,-0.1170335859060287
0.7250730991363525,9.72897032625042e-06,0.0017187398625537,-1.6141464584507048e-05,0.1708643138408661,-9.707555770874023,-0.1770203411579132
0.7300739288330078,9.72897032625042e-06,-2.658932498889044e-05,-1.6141464584507048e-05,0.1710324585437774,-9.746081352233888,-0.1378285139799118
0.7350735664367676,9.72897032625042e-06,-2.658932498889044e-05,-1.6141464584507048e-05,0.2111223936080932,-9.764674186706545,-0.1173794418573379
0.7400732040405273,9.72897032625042e-06,-2.658932498889044e-05,0.0017291877884417,0.1510295569896698,-9.746416091918944,-0.138255089521408
0.7450740337371826,9.72897032625042e-06,-2.658932498889044e-05,0.0034745170269161,0.1910353600978851,-9.745745658874512,-0.1374019235372543
0.7500736713409424,9.72897032625042e-06,0.0034640692174434,0.0017291877884417,0.1714414060115814,-9.686114311218262,-0.1366294920444488
0.7550735473632812,-0.003480929415673,0.0017187398625537,-1.6141464584507048e-05,0.1714732348918914,-9.74462890625,-0.09783735871315
0.7600729465484619,9.72897032625042e-06,-2.658932498889044e-05,-1.6141464584507048e-05,0.1913920640945434,-9.725030899047852,-0.1170066744089126
0.7650737762451172,0.0017550581833347,-2.658932498889044e-05,0.0034745170269161,0.1712528467178344,-9.745355606079102,-0.1178329437971115
0.7700731754302979,9.72897032625042e-06,-2.658932498889044e-05,-1.6141464584507048e-05,0.1716617941856384,-9.685388565063477,-0.1166339218616485
0.7750732898712158,-0.0017356002936139,-2.658932498889044e-05,-1.6141464584507048e-05,0.1512499451637268,-9.74569034576416,-0.1182595193386077
0.7800724506378174,9.72897032625042e-06,-2.658932498889044e-05,0.0017291877884417,0.1713891625404358,-9.725366592407228,-0.1174332648515701
0.7850732803344727,9.72897032625042e-06,-2.658932498889044e-05,-1.6141464584507048e-05,0.1706757545471191,-9.766797065734863,-0.1582237780094146
0.7900726795196533,9.72897032625042e-06,0.0034640692174434,0.0034745170269161,0.1714414060115814,-9.686114311218262,-0.1366294920444488
0.7950723171234131,9.72897032625042e-06,-2.658932498889044e-05,0.0034745170269161,0.1517429500818252,-9.704985618591309,-0.0974645763635635
0.8000726699829102,0.0017550581833347,0.0017187398625537,-1.6141464584507048e-05,0.1513021737337112,-9.706438064575195,-0.1374557316303253
0.805072546005249,9.72897032625042e-06,0.0017187398625537,-0.0017614706885069,0.1509454697370529,-9.727153778076172,-0.1578509956598281
0.8100719451904297,9.72897032625042e-06,-2.658932498889044e-05,0.0017291877884417,0.1314674317836761,-9.745299339294434,-0.0986905246973037
0.8150715827941895,-0.003480929415673,-0.003517247736454,-1.6141464584507048e-05,0.1711687743663787,-9.726092338562012,-0.1374288350343704
0.8200709819793701,9.72897032625042e-06,0.0069547276943922,-1.6141464584507048e-05,0.1915283799171447,-9.705041885375977,-0.1166069954633712
0.8250715732574463,-0.0017356002936139,0.0017187398625537,0.0017291877884417,0.1711687743663787,-9.726092338562012,-0.1374288350343704
0.830070972442627,9.72897032625042e-06,-0.0017719186143949,-1.6141464584507048e-05,0.1312151998281479,-9.687511444091797,-0.1574782431125641
0.8350706100463867,0.0017550581833347,-2.658932498889044e-05,0.0017291877884417,0.1709483861923217,-9.726819038391112,-0.1574244201183319
0.8400709629058838,-0.0017356002936139,0.0034640692174434,-1.6141464584507048e-05,0.1712528467178344,-9.745355606079102,-0.1178329437971115
0.8450706005096436,9.72897032625042e-06,0.0052093984559178,0.0034745170269161,0.1910353600978851,-9.745745658874512,-0.1374019235372543
0.8500699996948242,-0.0017356002936139,-2.658932498889044e-05,-1.6141464584507048e-05,0.1711687743663787,-9.726092338562012,-0.1374288350343704
0.855069637298584,9.72897032625042e-06,0.0017187398625537,-1.6141464584507048e-05,0.1909512877464294,-9.726483345031738,-0.1569978296756744
0.860069751739502,-0.0017356002936139,0.0034640692174434,-1.6141464584507048e-05,0.1913920640945434,-9.725030899047852,-0.1170066744089126
0.8650693893432617,9.72897032625042e-06,0.0017187398625537,0.0017291877884417,0.1913079917430877,-9.705767631530762,-0.1366025656461715
0.8700685501098633,9.72897032625042e-06,-2.658932498889044e-05,0.0017291877884417,0.1713891625404358,-9.725366592407228,-0.1174332648515701
0.875068187713623,9.72897032625042e-06,-2.658932498889044e-05,-1.6141464584507048e-05,0.1908990442752838,-9.765734672546388,-0.1378016024827957
0.8800685405731201,9.72897032625042e-06,0.0052093984559178,0.0017291877884417,0.1912557482719421,-9.745019912719728,-0.117406353354454
0.8850679397583008,-0.0017356002936139,-2.658932498889044e-05,-1.6141464584507048e-05,0.1912557482719421,-9.745019912719728,-0.117406353354454
0.8900671005249023,0.0017550581833347,0.0017187398625537,-1.6141464584507048e-05,0.1718299388885498,-9.72391414642334,-0.0774420946836471
0.8950667381286621,9.72897032625042e-06,0.0034640692174434,-1.6141464584507048e-05,0.1714414060115814,-9.686114311218262,-0.1366294920444488
0.9000668525695801,9.72897032625042e-06,0.0017187398625537,0.0017291877884417,0.1713050901889801,-9.706103324890137,-0.137029156088829
0.9050662517547607,9.72897032625042e-06,0.0017187398625537,-1.6141464584507048e-05,0.1710324585437774,-9.746081352233888,-0.1378285139799118
0.9100654125213623,9.72897032625042e-06,0.0017187398625537,0.0034745170269161,0.1712528467178344,-9.745355606079102,-0.1178329437971115
0.9150660037994385,9.72897032625042e-06,0.0052093984559178,0.0017291877884417,0.1716095507144928,-9.724639892578123,-0.0974376797676086
0.92006516456604,9.72897032625042e-06,0.0034640692174434,-1.6141464584507048e-05,0.1712528467178344,-9.745355606079102,-0.1178329437971115
0.9250643253326416,9.72897032625042e-06,0.0017187398625537,-1.6141464584507048e-05,0.1513021737337112,-9.706438064575195,-0.1374557316303253
0.9300646781921387,9.72897032625042e-06,0.0034640692174434,0.0017291877884417,0.1714414060115814,-9.686114311218262,-0.1366294920444488
0.9350640773773193,-0.0017356002936139,-2.658932498889044e-05,-0.0052521293982863,0.1915283799171447,-9.705041885375977,-0.1166069954633712
0.9400632381439209,-0.0017356002936139,0.0017187398625537,0.0017291877884417,0.191223919391632,-9.686505317687988,-0.1561984866857528
0.9450623989105225,0.0017550581833347,0.0034640692174434,-1.6141464584507048e-05,0.1516066342592239,-9.724974632263184,-0.0978642553091049
0.950061559677124,9.72897032625042e-06,-2.658932498889044e-05,-1.6141464584507048e-05,0.1712528467178344,-9.745355606079102,-0.1178329437971115
0.955061674118042,9.72897032625042e-06,0.0034640692174434,-1.6141464584507048e-05,0.1705394387245178,-9.786786079406738,-0.158623456954956
0.9600610733032227,9.72897032625042e-06,-2.658932498889044e-05,0.0017291877884417,0.1912557482719421,-9.745019912719728,-0.117406353354454
0.9650602340698242,9.72897032625042e-06,0.0017187398625537,-1.6141464584507048e-05,0.1713891625404358,-9.725366592407228,-0.1174332648515701
0.9700603485107422,-0.0017356002936139,-2.658932498889044e-05,-1.6141464584507048e-05,0.1711687743663787,-9.726092338562012,-0.1374288350343704
0.9750595092773438,9.72897032625042e-06,0.0034640692174434,0.0017291877884417,0.1909512877464294,-9.726483345031738,-0.1569978296756744
0.9800586700439453,9.72897032625042e-06,-2.658932498889044e-05,-1.6141464584507048e-05,0.1713891625404358,-9.725366592407228,-0.1174332648515701
0.9850578308105469,9.72897032625042e-06,0.0017187398625537,0.0034745170269161,0.1708120703697204,-9.746808052062988,-0.1578240990638733
0.9900579452514648,0.0017550581833347,0.0034640692174434,-0.0017614706885069,0.1716095507144928,-9.724639892578123,-0.0974376797676086
0.9950571060180664,9.72897032625042e-06,-2.658932498889044e-05,-1.6141464584507048e-05,0.1710324585437774,-9.746081352233888,-0.1378285139799118
1.0000560283660889,9.72897032625042e-06,0.0017187398625537,0.0017291877884417,0.1516066342592239,-9.724974632263184,-0.0978642553091049
1.0050561428070068,0.0017550581833347,-2.658932498889044e-05,0.0034745170269161,0.1714414060115814,-9.686114311218262,-0.1366294920444488
1.0100550651550293,9.72897032625042e-06,0.0017187398625537,-1.6141464584507048e-05,0.1515748053789138,-9.666460037231444,-0.1366563886404037
1.01505446434021,0.0017550581833347,0.0017187398625537,0.0034745170269161,0.1518792659044265,-9.684996604919434,-0.0970649123191833
1.0200533866882324,9.72897032625042e-06,-2.658932498889044e-05,-0.0035067999269813,0.1911716759204864,-9.725756645202637,-0.1370022445917129
1.0250535011291504,9.72897032625042e-06,0.0017187398625537,0.0017291877884417,0.1908149719238281,-9.746472358703612,-0.1573975086212158
1.0300524234771729,9.72897032625042e-06,0.0017187398625537,-1.6141464584507048e-05,0.1713369190692901,-9.764617919921877,-0.0982370376586914
1.0350515842437744,-0.0017356002936139,-2.658932498889044e-05,0.0017291877884417,0.1712528467178344,-9.745355606079102,-0.1178329437971115
1.0400502681732178,9.72897032625042e-06,0.0017187398625537,0.0034745170269161,0.1711687743663787,-9.726092338562012,-0.1374288350343704
1.0450506210327148,9.72897032625042e-06,0.0017187398625537,-1.6141464584507048e-05,0.1717458665370941,-9.70465087890625,-0.0970380008220672
1.0500495433807373,9.72897032625042e-06,-2.658932498889044e-05,-1.6141464584507048e-05,0.1516588777303695,-9.685723304748535,-0.1170604974031448
1.0550482273101807,9.72897032625042e-06,0.0052093984559178,0.0034745170269161,0.1915283799171447,-9.705041885375977,-0.1166069954633712
1.0600473880767822,-0.0017356002936139,-2.658932498889044e-05,0.0017291877884417,0.1509454697370529,-9.727153778076172,-0.1578509956598281
1.065047264099121,9.72897032625042e-06,0.0034640692174434,-1.6141464584507048e-05,0.1707279980182647,-9.727544784545898,-0.1774200201034546
1.0700464248657227,9.72897032625042e-06,0.0017187398625537,0.0017291877884417,0.1709802150726318,-9.785333633422852,-0.1186323016881942
1.075045108795166,9.72897032625042e-06,0.0034640692174434,0.0017291877884417,0.1911716759204864,-9.725756645202637,-0.1370022445917129
1.0800442695617676,0.0017550581833347,0.0017187398625537,-1.6141464584507048e-05,0.1710847020149231,-9.706830024719238,-0.1570247411727905
1.0850439071655273,9.72897032625042e-06,-2.658932498889044e-05,-1.6141464584507048e-05,0.1718821823596954,-9.684661865234377,-0.096638336777687
1.0900428295135498,9.72897032625042e-06,0.0034640692174434,-1.6141464584507048e-05,0.1715254783630371,-9.705377578735352,-0.1170335859060287
1.0950417518615723,0.0017550581833347,0.0052093984559178,0.0034745170269161,0.1711687743663787,-9.726092338562012,-0.1374288350343704
1.1000416278839111,-0.0017356002936139,0.0017187398625537,-1.6141464584507048e-05,0.1912557482719421,-9.745019912719728,-0.117406353354454
1.1050405502319336,9.72897032625042e-06,-2.658932498889044e-05,0.0034745170269161,0.1913398206233978,-9.7642822265625,-0.0978104472160339
1.110039234161377,9.72897032625042e-06,0.0017187398625537,0.0017291877884417,0.1712528467178344,-9.745355606079102,-0.1178329437971115
1.1150391101837158,9.72897032625042e-06,-2.658932498889044e-05,-1.6141464584507048e-05,0.1717458665370941,-9.70465087890625,-0.0970380008220672
1.1200380325317383,9.72897032625042e-06,0.0034640692174434,-1.6141464584507048e-05,0.1913079917430877,-9.705767631530762,-0.1366025656461715
1.1250369548797607,9.72897032625042e-06,0.0017187398625537,0.0017291877884417,0.1516588777303695,-9.685723304748535,-0.1170604974031448
1.130035638809204,9.72897032625042e-06,0.0017187398625537,-1.6141464584507048e-05,0.1915283799171447,-9.705041885375977,-0.1166069954633712
1.1350343227386475,-0.0017356002936139,0.0017187398625537,0.0017291877884417,0.1708961427211761,-9.766070365905762,-0.1382281929254531
1.1400341987609863,9.72897032625042e-06,-2.658932498889044e-05,0.0017291877884417,0.1514703333377838,-9.74496364593506,-0.0982639342546463
1.1450328826904297,9.72897032625042e-06,0.0017187398625537,-1.6141464584507048e-05,0.1715254783630371,-9.705377578735352,-0.1170335859060287
1.1500318050384521,9.72897032625042e-06,0.0017187398625537,0.0017291877884417,0.1715254783630371,-9.705377578735352,-0.1170335859060287
1.1550312042236328,9.72897032625042e-06,0.0017187398625537,-1.6141464584507048e-05,0.1715254783630371,-9.705377578735352,-0.1170335859060287
1.1600298881530762,0.0017550581833347,-2.658932498889044e-05,-1.6141464584507048e-05,0.1717458665370941,-9.70465087890625,-0.0970380008220672
1.1650288105010986,9.72897032625042e-06,0.0069547276943922,-1.6141464584507048e-05,0.1713050901889801,-9.706103324890137,-0.137029156088829
1.170027494430542,9.72897032625042e-06,0.0034640692174434,0.0017291877884417,0.1912557482719421,-9.745019912719728,-0.117406353354454
1.1750271320343018,9.72897032625042e-06,0.0017187398625537,0.0017291877884417,0.1708961427211761,-9.766070365905762,-0.1382281929254531
1.1800258159637451,0.0017550581833347,-2.658932498889044e-05,0.0017291877884417,0.1908149719238281,-9.746472358703612,-0.1573975086212158
1.1850244998931885,-0.0017356002936139,-2.658932498889044e-05,-1.6141464584507048e-05,0.1713050901889801,-9.706103324890137,-0.137029156088829
1.1900231838226318,9.72897032625042e-06,-2.658932498889044e-05,-1.6141464584507048e-05,0.1710847020149231,-9.706830024719238,-0.1570247411727905
1.1950225830078125,9.72897032625042e-06,-2.658932498889044e-05,-1.6141464584507048e-05,0.1713050901889801,-9.706103324890137,-0.137029156088829
1.200021505355835,-0.0017356002936139,0.0017187398625537,0.0017291877884417,0.1518270224332809,-9.724248886108398,-0.0778686702251434
1.2050232887268066,9.72897032625042e-06,-2.658932498889044e-05,0.0017291877884417,0.1518270224332809,-9.724248886108398,-0.0778686702251434
1.2084505558013916,9.72897032625042e-06,-2.658932498889044e-05,-1.6141464584507048e-05,0.1713891625404358,-9.725366592407228,-0.1174332648515701
1.2134408950805664,9.72897032625042e-06,0.0017187398625537,-1.6141464584507048e-05,0.1316037327051162,-9.72531032562256,-0.0982908457517623
1.2184298038482666,9.72897032625042e-06,-0.0017719186143949,0.0017291877884417,0.1914761364459991,-9.744293212890623,-0.0974107682704925
1.223418951034546,9.72897032625042e-06,0.0017187398625537,-0.0017614706885069,0.1716617941856384,-9.685388565063477,-0.1166339218616485
1.2284080982208252,9.72897032625042e-06,-2.658932498889044e-05,0.0017291877884417,0.1714414060115814,-9.686114311218262,-0.1366294920444488
1.233398199081421,9.72897032625042e-06,0.0017187398625537,0.0017291877884417,0.1715777218341827,-9.666125297546388,-0.1362298130989074
1.238387107849121,-0.0017356002936139,0.0017187398625537,-1.6141464584507048e-05,0.1915283799171447,-9.705041885375977,-0.1166069954633712
1.2433760166168213,9.72897032625042e-06,-2.658932498889044e-05,0.0017291877884417,0.1906786561012268,-9.766461372375488,-0.1577971875667572
1.248365879058838,0.0017550581833347,0.0052093984559178,-1.6141464584507048e-05,0.1710324585437774,-9.746081352233888,-0.1378285139799118
1.2533550262451172,9.72897032625042e-06,-2.658932498889044e-05,-1.6141464584507048e-05,0.1710324585437774,-9.746081352233888,-0.1378285139799118
1.2583439350128174,-0.003480929415673,-2.658932498889044e-05,-1.6141464584507048e-05,0.1507250815629959,-9.727879524230955,-0.177846610546112
1.2633328437805176,0.0017550581833347,-2.658932498889044e-05,0.0017291877884417,0.1915283799171447,-9.705041885375977,-0.1166069954633712
1.2683227062225342,9.72897032625042e-06,0.0034640692174434,0.0034745170269161,0.1712210178375244,-9.686841011047363,-0.1566250771284103
1.2733116149902344,9.72897032625042e-06,-2.658932498889044e-05,-1.6141464584507048e-05,0.1710324585437774,-9.746081352233888,-0.1378285139799118
1.2783002853393555,9.72897032625042e-06,-2.658932498889044e-05,-1.6141464584507048e-05,0.1711687743663787,-9.726092338562012,-0.1374288350343704
1.2832891941070557,9.72897032625042e-06,-2.658932498889044e-05,-0.0017614706885069,0.1905945837497711,-9.747198104858398,-0.1773931086063385
1.2882978916168213,9.72897032625042e-06,0.0017187398625537,-1.6141464584507048e-05,0.1712528467178344,-9.745355606079102,-0.1178329437971115
1.293306827545166,0.0035003875382244,-2.658932498889044e-05,0.0017291877884417,0.1513862460851669,-9.725701332092283,-0.1178598403930664
1.2983160018920898,9.72897032625042e-06,0.0034640692174434,0.0034745170269161,0.1713891625404358,-9.725366592407228,-0.1174332648515701
1.303325891494751,9.72897032625042e-06,0.0017187398625537,-1.6141464584507048e-05,0.1711687743663787,-9.726092338562012,-0.1374288350343704
1.3083348274230957,9.72897032625042e-06,-2.658932498889044e-05,-1.6141464584507048e-05,0.1711687743663787,-9.726092338562012,-0.1374288350343704
1.3133440017700195,-0.0017356002936139,-2.658932498889044e-05,-1.6141464584507048e-05,0.1512181013822555,-9.687175750732422,-0.1570516526699066
1.3183538913726807,0.0017550581833347,0.0017187398625537,0.0017291877884417,0.1712210178375244,-9.686841011047363,-0.1566250771284103
1.3233630657196045,-0.0017356002936139,-2.658932498889044e-05,0.0017291877884417,0.1710847020149231,-9.706830024719238,-0.1570247411727905
1.3283720016479492,9.72897032625042e-06,-2.658932498889044e-05,-1.6141464584507048e-05,0.1711687743663787,-9.726092338562012,-0.1374288350343704
1.333381175994873,0.0017550581833347,-2.658932498889044e-05,-1.6141464584507048e-05,0.1712528467178344,-9.745355606079102,-0.1178329437971115
1.3383901119232178,-0.0017356002936139,-2.658932498889044e-05,0.0017291877884417,0.1512499451637268,-9.74569034576416,-0.1182595193386077
1.343400239944458,0.0017550581833347,0.0017187398625537,0.0017291877884417,0.1713891625404358,-9.725366592407228,-0.1174332648515701
1.3484091758728027,9.72897032625042e-06,0.0017187398625537,0.0017291877884417,0.1912557482719421,-9.745019912719728,-0.117406353354454
1.3534181118011475,9.72897032625042e-06,0.0034640692174434,0.0052198460325598,0.1714732348918914,-9.74462890625,-0.09783735871315
1.3584282398223877,9.72897032625042e-06,-0.0017719186143949,-1.6141464584507048e-05,0.1516066342592239,-9.724974632263184,-0.0978642553091049
1.3634371757507324,0.0017550581833347,0.0034640692174434,-1.6141464584507048e-05,0.1708643138408661,-9.707555770874023,-0.1770203411579132
1.3684461116790771,0.0017550581833347,-0.0017719186143949,0.0034745170269161,0.1713050901889801,-9.706103324890137,-0.137029156088829
1.373455286026001,9.72897032625042e-06,0.0017187398625537,0.0034745170269161,0.1915283799171447,-9.705041885375977,-0.1166069954633712
1.378465175628662,9.72897032625042e-06,-2.658932498889044e-05,-0.0017614706885069,0.1715254783630371,-9.705377578735352,-0.1170335859060287
1.3834741115570068,-0.0017356002936139,-2.658932498889044e-05,0.0034745170269161,0.1913920640945434,-9.725030899047852,-0.1170066744089126
1.3884832859039307,9.72897032625042e-06,-2.658932498889044e-05,0.0017291877884417,0.1911716759204864,-9.725756645202637,-0.1370022445917129
1.3934931755065918,9.72897032625042e-06,0.0034640692174434,-1.6141464584507048e-05,0.1716095507144928,-9.724639892578123,-0.0974376797676086
1.3985021114349365,0.0017550581833347,0.0052093984559178,0.0034745170269161,0.1711687743663787,-9.726092338562012,-0.1374288350343704
1.4035112857818604,9.72897032625042e-06,-2.658932498889044e-05,0.0034745170269161,0.1709483861923217,-9.726819038391112,-0.1574244201183319
1.408520221710205,9.72897032625042e-06,0.0034640692174434,0.0017291877884417,0.1709483861923217,-9.726819038391112,-0.1574244201183319
1.4135291576385498,9.72897032625042e-06,0.0034640692174434,-1.6141464584507048e-05,0.1511658579111099,-9.72642707824707,-0.1378554105758667
1.41853928565979,-0.0017356002936139,0.0034640692174434,-0.0017614706885069,0.1708120703697204,-9.746808052062988,-0.1578240990638733
1.4235482215881348,-0.0017356002936139,-2.658932498889044e-05,-1.6141464584507048e-05,0.1707279980182647,-9.727544784545898,-0.1774200201034546
1.4285573959350586,9.72897032625042e-06,-2.658932498889044e-05,-1.6141464584507048e-05,0.1511658579111099,-9.72642707824707,-0.1378554105758667
1.4335672855377197,9.72897032625042e-06,-2.658932498889044e-05,-1.6141464584507048e-05,0.1713369190692901,-9.764617919921877,-0.0982370376586914
1.4385764598846436,9.72897032625042e-06,0.0017187398625537,0.0017291877884417,0.1511658579111099,-9.72642707824707,-0.1378554105758667
1.4435853958129883,9.72897032625042e-06,0.0017187398625537,0.0017291877884417,0.1716617941856384,-9.685388565063477,-0.1166339218616485
1.448594570159912,0.0017550581833347,0.0017187398625537,-1.6141464584507048e-05,0.1713891625404358,-9.725366592407228,-0.1174332648515701
1.4536044597625732,9.72897032625042e-06,0.0034640692174434,-1.6141464584507048e-05,0.1516588777303695,-9.685723304748535,-0.1170604974031448
1.458613395690918,9.72897032625042e-06,-0.0017719186143949,0.0017291877884417,0.1714732348918914,-9.74462890625,-0.09783735871315
1.4636225700378418,-0.0017356002936139,-2.658932498889044e-05,-0.0017614706885069,0.1912557482719421,-9.745019912719728,-0.117406353354454
1.4686315059661865,-0.0017356002936139,0.0069547276943922,-1.6141464584507048e-05,0.1711687743663787,-9.726092338562012,-0.1374288350343704
1.4736416339874268,9.72897032625042e-06,0.0017187398625537,0.0052198460325598,0.2108701765537262,-9.70688533782959,-0.1761671602725982
1.4786505699157715,-0.0017356002936139,-0.0017719186143949,-1.6141464584507048e-05,0.1517429500818252,-9.704985618591309,-0.0974645763635635
1.4836597442626953,9.72897032625042e-06,0.0052093984559178,0.0017291877884417,0.1716617941856384,-9.685388565063477,-0.1166339218616485
1.4886696338653564,9.72897032625042e-06,0.0034640692174434,-1.6141464584507048e-05,0.1713050901889801,-9.706103324890137,-0.137029156088829
1.4936785697937012,9.72897032625042e-06,0.0017187398625537,0.0052198460325598,0.1710324585437774,-9.746081352233888,-0.1378285139799118
1.498687744140625,0.0017550581833347,0.0017187398625537,-1.6141464584507048e-05,0.1710324585437774,-9.746081352233888,-0.1378285139799118
1.5036966800689697,9.72897032625042e-06,0.0017187398625537,-1.6141464584507048e-05,0.1713050901889801,-9.706103324890137,-0.137029156088829
1.50870680809021,9.72897032625042e-06,-2.658932498889044e-05,0.0034745170269161,0.1714732348918914,-9.74462890625,-0.09783735871315
1.5137157440185547,0.0052457167766988,0.0052093984559178,-0.0017614706885069,0.1721025705337524,-9.68393611907959,-0.0766427516937255
1.5187246799468994,-0.0017356002936139,-2.658932498889044e-05,0.0017291877884417,0.1517429500818252,-9.704985618591309,-0.0974645763635635
1.5237348079681396,9.72897032625042e-06,-2.658932498889044e-05,0.0034745170269161,0.1916646957397461,-9.685052871704102,-0.116207331418991
1.5287439823150635,9.72897032625042e-06,0.0017187398625537,0.0017291877884417,0.1916124522686004,-9.72430419921875,-0.0970110893249511
1.533752679824829,9.72897032625042e-06,0.0017187398625537,-1.6141464584507048e-05,0.1706757545471191,-9.766797065734863,-0.1582237780094146
1.538762092590332,9.72897032625042e-06,-2.658932498889044e-05,0.0017291877884417,0.1908990442752838,-9.765734672546388,-0.1378016024827957
1.5437719821929932,9.72897032625042e-06,0.0017187398625537,0.0017291877884417,0.1513021737337112,-9.706438064575195,-0.1374557316303253
1.5487806797027588,0.0017550581833347,0.0034640692174434,-1.6141464584507048e-05,0.1510817855596542,-9.707164764404297,-0.1574513167142868
1.5537900924682617,9.72897032625042e-06,0.0017187398625537,0.0017291877884417,0.1716617941856384,-9.685388565063477,-0.1166339218616485
1.5587987899780273,9.72897032625042e-06,-2.658932498889044e-05,0.0017291877884417,0.1709483861923217,-9.726819038391112,-0.1574244201183319
1.563807487487793,9.72897032625042e-06,0.0087000569328665,-0.0017614706885069,0.1712528467178344,-9.745355606079102,-0.1178329437971115
1.5688180923461914,0.0017550581833347,-2.658932498889044e-05,-1.6141464584507048e-05,0.1515225619077682,-9.70571231842041,-0.117460161447525
1.573826789855957,9.72897032625042e-06,-2.658932498889044e-05,-1.6141464584507048e-05,0.1511136293411255,-9.765679359436035,-0.1186591982841491
1.5788359642028809,9.72897032625042e-06,0.0034640692174434,-1.6141464584507048e-05,0.1709483861923217,-9.726819038391112,-0.1574244201183319
1.583846092224121,0.0017550581833347,-2.658932498889044e-05,-1.6141464584507048e-05,0.1715254783630371,-9.705377578735352,-0.1170335859060287
1.5888550281524658,-0.003480929415673,0.0069547276943922,0.0017291877884417,0.1713050901889801,-9.706103324890137,-0.137029156088829
1.5938639640808105,0.0017550581833347,0.0017187398625537,-1.6141464584507048e-05,0.1713050901889801,-9.706103324890137,-0.137029156088829
1.5988731384277344,9.72897032625042e-06,-2.658932498889044e-05,0.0017291877884417,0.1716617941856384,-9.685388565063477,-0.1166339218616485
1.6038830280303955,9.72897032625042e-06,0.0034640692174434,-1.6141464584507048e-05,0.1708961427211761,-9.766070365905762,-0.1382281929254531
1.6088919639587402,9.72897032625042e-06,0.0034640692174434,-1.6141464584507048e-05,0.1708961427211761,-9.766070365905762,-0.1382281929254531
1.613901138305664,-0.003480929415673,0.0034640692174434,-1.6141464584507048e-05,0.1516066342592239,-9.724974632263184,-0.0978642553091049
1.6189110279083252,9.72897032625042e-06,0.0017187398625537,0.0017291877884417,0.1513862460851669,-9.725701332092283,-0.1178598403930664
1.623920202255249,9.72897032625042e-06,0.0034640692174434,-1.6141464584507048e-05,0.1717458665370941,-9.70465087890625,-0.0970380008220672
1.6289291381835938,-0.0017356002936139,0.0034640692174434,-0.0017614706885069,0.1719662547111511,-9.703925132751465,-0.0770424157381057
1.6339383125305176,9.72897032625042e-06,0.0017187398625537,0.0017291877884417,0.1915283799171447,-9.705041885375977,-0.1166069954633712
1.6389482021331787,9.72897032625042e-06,0.0017187398625537,-1.6141464584507048e-05,0.1716095507144928,-9.724639892578123,-0.0974376797676086
1.6439571380615234,9.72897032625042e-06,0.0017187398625537,0.0034745170269161,0.1916965246200561,-9.74356746673584,-0.077415183186531
1.6489663124084473,9.72897032625042e-06,0.0034640692174434,-1.6141464584507048e-05,0.1905945837497711,-9.747198104858398,-0.1773931086063385
1.653975248336792,9.72897032625042e-06,-2.658932498889044e-05,0.0017291877884417,0.1713891625404358,-9.725366592407228,-0.1174332648515701
1.6589853763580322,9.72897032625042e-06,0.0052093984559178,0.0017291877884417,0.1711687743663787,-9.726092338562012,-0.1374288350343704
1.663994312286377,9.72897032625042e-06,0.0034640692174434,0.0017291877884417,0.1711687743663787,-9.726092338562012,-0.1374288350343704
1.6690034866333008,9.72897032625042e-06,-2.658932498889044e-05,-1.6141464584507048e-05,0.1715254783630371,-9.705377578735352,-0.1170335859060287
1.674013376235962,9.72897032625042e-06,0.0052093984559178,0.0017291877884417,0.1708120703697204,-9.746808052062988,-0.1578240990638733
1.6790225505828857,-0.0017356002936139,0.0017187398625537,-1.6141464584507048e-05,0.1713891625404358,-9.725366592407228,-0.1174332648515701
1.6840314865112305,9.72897032625042e-06,-2.658932498889044e-05,0.0034745170269161,0.1707279980182647,-9.727544784545898,-0.1774200201034546
1.6890404224395752,9.72897032625042e-06,0.0017187398625537,-1.6141464584507048e-05,0.1511658579111099,-9.72642707824707,-0.1378554105758667
1.6940505504608154,-0.0017356002936139,-2.658932498889044e-05,-1.6141464584507048e-05,0.1513862460851669,-9.725701332092283,-0.1178598403930664
1.6990594863891602,9.72897032625042e-06,0.0052093984559178,0.0034745170269161,0.1911716759204864,-9.725756645202637,-0.1370022445917129
1.704068899154663,9.72897032625042e-06,0.0017187398625537,0.0034745170269161,0.1912557482719421,-9.745019912719728,-0.117406353354454
1.7090785503387451,9.72897032625042e-06,-2.658932498889044e-05,-1.6141464584507048e-05,0.1517429500818252,-9.704985618591309,-0.0974645763635635
1.7140874862670898,9.72897032625042e-06,0.0017187398625537,-1.6141464584507048e-05,0.1710324585437774,-9.746081352233888,-0.1378285139799118
1.7190968990325928,9.72897032625042e-06,0.0052093984559178,0.0017291877884417,0.1713891625404358,-9.725366592407228,-0.1174332648515701
1.7241055965423584,9.72897032625042e-06,-2.658932498889044e-05,-1.6141464584507048e-05,0.1708961427211761,-9.766070365905762,-0.1382281929254531
1.7291154861450195,0.0035003875382244,-2.658932498889044e-05,-1.6141464584507048e-05,0.1511658579111099,-9.72642707824707,-0.1378554105758667
1.7341248989105225,-0.0017356002936139,-2.658932498889044e-05,-1.6141464584507048e-05,0.1510817855596542,-9.707164764404297,-0.1574513167142868
1.7391340732574463,9.72897032625042e-06,0.0052093984559178,-1.6141464584507048e-05,0.1713050901889801,-9.706103324890137,-0.137029156088829
1.744142770767212,9.72897032625042e-06,0.0052093984559178,0.0034745170269161,0.1710847020149231,-9.706830024719238,-0.1570247411727905
1.7491528987884521,9.72897032625042e-06,-2.658932498889044e-05,-1.6141464584507048e-05,0.1512499451637268,-9.74569034576416,-0.1182595193386077
1.754162073135376,0.0035003875382244,0.0034640692174434,0.0017291877884417,0.1711687743663787,-9.726092338562012,-0.1374288350343704
1.7591702938079834,-0.0017356002936139,-2.658932498889044e-05,-1.6141464584507048e-05,0.1512499451637268,-9.74569034576416,-0.1182595193386077
1.7641794681549072,9.72897032625042e-06,0.0034640692174434,-1.6141464584507048e-05,0.1911716759204864,-9.725756645202637,-0.1370022445917129
1.7691895961761475,9.72897032625042e-06,-2.658932498889044e-05,-1.6141464584507048e-05,0.1713050901889801,-9.706103324890137,-0.137029156088829
1.7741987705230713,9.72897032625042e-06,0.0017187398625537,0.0034745170269161,0.1713050901889801,-9.706103324890137,-0.137029156088829
1.779207468032837,9.72897032625042e-06,0.0034640692174434,-1.6141464584507048e-05,0.1911716759204864,-9.725756645202637,-0.1370022445917129
1.7842180728912354,9.72897032625042e-06,0.0034640692174434,-1.6141464584507048e-05,0.1912557482719421,-9.745019912719728,-0.117406353354454
1.789226770401001,9.72897032625042e-06,0.0052093984559178,0.0034745170269161,0.1711687743663787,-9.726092338562012,-0.1374288350343704
1.7942354679107666,-0.0017356002936139,-2.658932498889044e-05,-1.6141464584507048e-05,0.1511658579111099,-9.72642707824707,-0.1378554105758667
1.7992448806762695,9.72897032625042e-06,-2.658932498889044e-05,0.0017291877884417,0.1710324585437774,-9.746081352233888,-0.1378285139799118
1.8042547702789307,9.72897032625042e-06,-2.658932498889044e-05,-1.6141464584507048e-05,0.1718299388885498,-9.72391414642334,-0.0774420946836471
1.8092639446258545,9.72897032625042e-06,-2.658932498889044e-05,-1.6141464584507048e-05,0.1917487680912017,-9.704315185546877,-0.0966114103794097
1.8142728805541992,0.0017550581833347,0.0034640692174434,-1.6141464584507048e-05,0.1715254783630371,-9.705377578735352,-0.1170335859060287
1.819282054901123,9.72897032625042e-06,-2.658932498889044e-05,0.0017291877884417,0.1510817855596542,-9.707164764404297,-0.1574513167142868
1.8242919445037842,0.0017550581833347,-2.658932498889044e-05,0.0017291877884417,0.1914761364459991,-9.744293212890623,-0.0974107682704925
1.829301118850708,0.0017550581833347,-2.658932498889044e-05,-1.6141464584507048e-05,0.1908990442752838,-9.765734672546388,-0.1378016024827957
1.8343100547790527,9.72897032625042e-06,-2.658932498889044e-05,0.0052198460325598,0.1713050901889801,-9.706103324890137,-0.137029156088829
1.8393189907073975,9.72897032625042e-06,-2.658932498889044e-05,0.0017291877884417,0.1908149719238281,-9.746472358703612,-0.1573975086212158
1.8443291187286377,9.72897032625042e-06,0.0052093984559178,0.0034745170269161,0.1510817855596542,-9.707164764404297,-0.1574513167142868
1.8493380546569824,9.72897032625042e-06,0.0017187398625537,0.0034745170269161,0.1719662547111511,-9.703925132751465,-0.0770424157381057
1.8543472290039062,9.72897032625042e-06,0.0017187398625537,0.0034745170269161,0.1915283799171447,-9.705041885375977,-0.1166069954633712
1.8593571186065674,9.72897032625042e-06,0.0017187398625537,-1.6141464584507048e-05,0.1506728529930114,-9.767131805419922,-0.1586503535509109
1.8643662929534912,-0.0017356002936139,0.0017187398625537,-1.6141464584507048e-05,0.1909512877464294,-9.726483345031738,-0.1569978296756744
1.869375228881836,0.0017550581833347,-2.658932498889044e-05,0.0052198460325598,0.1916124522686004,-9.72430419921875,-0.0970110893249511
1.8743841648101807,9.72897032625042e-06,0.0034640692174434,-0.0017614706885069,0.1710324585437774,-9.746081352233888,-0.1378285139799118
1.8793933391571045,9.72897032625042e-06,-2.658932498889044e-05,0.0017291877884417,0.1915283799171447,-9.705041885375977,-0.1166069954633712
1.8844032287597656,9.72897032625042e-06,0.0034640692174434,0.0034745170269161,0.1710324585437774,-9.746081352233888,-0.1378285139799118
1.8894124031066895,-0.0017356002936139,0.0052093984559178,-1.6141464584507048e-05,0.1511658579111099,-9.72642707824707,-0.1378554105758667
1.8944213390350342,9.72897032625042e-06,-2.658932498889044e-05,0.0017291877884417,0.1715254783630371,-9.705377578735352,-0.1170335859060287
1.8994314670562744,9.72897032625042e-06,0.0034640692174434,0.0017291877884417,0.1705916821956634,-9.747533798217772,-0.1778196990489959
1.9044404029846191,9.72897032625042e-06,-2.658932498889044e-05,0.0052198460325598,0.1710324585437774,-9.746081352233888,-0.1378285139799118
1.9094493389129639,-0.0017356002936139,0.0017187398625537,-0.0017614706885069,0.1913079917430877,-9.705767631530762,-0.1366025656461715
1.9144582748413086,9.72897032625042e-06,-2.658932498889044e-05,0.0034745170269161,0.1713050901889801,-9.706103324890137,-0.137029156088829
1.9194684028625488,9.72897032625042e-06,-2.658932498889044e-05,0.0017291877884417,0.1509454697370529,-9.727153778076172,-0.1578509956598281
1.9244775772094727,-0.0017356002936139,-0.0017719186143949,-1.6141464584507048e-05,0.1513862460851669,-9.725701332092283,-0.1178598403930664
1.9294862747192383,0.0017550581833347,0.0052093984559178,-1.6141464584507048e-05,0.1518270224332809,-9.724248886108398,-0.0778686702251434
1.9344968795776367,9.72897032625042e-06,-2.658932498889044e-05,-1.6141464584507048e-05,0.1712528467178344,-9.745355606079102,-0.1178329437971115
1.9395055770874023,9.72897032625042e-06,0.0034640692174434,0.0034745170269161,0.1713050901889801,-9.706103324890137,-0.137029156088829
1.944514274597168,-0.0017356002936139,0.0017187398625537,-1.6141464584507048e-05,0.1716617941856384,-9.685388565063477,-0.1166339218616485
1.949523687362671,-0.0017356002936139,-2.658932498889044e-05,-1.6141464584507048e-05,0.1515225619077682,-9.70571231842041,-0.117460161447525
1.954533576965332,9.72897032625042e-06,0.0034640692174434,0.0052198460325598,0.1712528467178344,-9.745355606079102,-0.1178329437971115
1.9595422744750977,9.72897032625042e-06,0.0034640692174434,-1.6141464584507048e-05,0.2116154134273529,-9.723969459533691,-0.0965844988822937
1.9645516872406006,-0.0017356002936139,-2.658932498889044e-05,-1.6141464584507048e-05,0.1710847020149231,-9.706830024719238,-0.1570247411727905
1.9695606231689453,9.72897032625042e-06,0.0034640692174434,0.0017291877884417,0.1511136293411255,-9.765679359436035,-0.1186591982841491
1.9745702743530273,9.72897032625042e-06,-2.658932498889044e-05,0.0017291877884417,0.1705394387245178,-9.786786079406738,-0.158623456954956
1.9795796871185303,9.72897032625042e-06,-2.658932498889044e-05,-1.6141464584507048e-05,0.1711687743663787,-9.726092338562012,-0.1374288350343704
1.984588623046875,9.72897032625042e-06,0.0017187398625537,-1.6141464584507048e-05,0.1715254783630371,-9.705377578735352,-0.1170335859060287
1.9895975589752197,9.72897032625042e-06,0.0034640692174434,-1.6141464584507048e-05,0.1517429500818252,-9.704985618591309,-0.0974645763635635
1.99460768699646,9.72897032625042e-06,0.0017187398625537,0.0034745170269161,0.1713891625404358,-9.725366592407228,-0.1174332648515701
1.9996166229248047,9.72897032625042e-06,-2.658932498889044e-05,0.0034745170269161,0.1715254783630371,-9.705377578735352,-0.1170335859060287
2.0046257972717285,9.72897032625042e-06,-2.658932498889044e-05,0.0034745170269161,0.1716095507144928,-9.724639892578123,-0.0974376797676086
2.0096356868743896,-0.003480929415673,-0.0017719186143949,-1.6141464584507048e-05,0.1505887806415558,-9.747868537902832,-0.1782462894916534
2.0146448612213135,9.72897032625042e-06,-2.658932498889044e-05,-1.6141464584507048e-05,0.1709483861923217,-9.726819038391112,-0.1574244201183319
2.019653797149658,9.72897032625042e-06,0.0034640692174434,-1.6141464584507048e-05,0.1515225619077682,-9.70571231842041,-0.117460161447525
2.024662733078003,9.72897032625042e-06,0.0052093984559178,0.0052198460325598,0.1715254783630371,-9.705377578735352,-0.1170335859060287
2.029672861099243,9.72897032625042e-06,-2.658932498889044e-05,-1.6141464584507048e-05,0.1717458665370941,-9.70465087890625,-0.0970380008220672
2.034681797027588,-0.0052262586541473,-0.0017719186143949,-1.6141464584507048e-05,0.1912557482719421,-9.745019912719728,-0.117406353354454
2.0396909713745117,0.0035003875382244,0.0052093984559178,0.0034745170269161,0.1711165308952331,-9.765344619750977,-0.1182326227426529
2.0446999073028564,0.0035003875382244,-2.658932498889044e-05,-1.6141464584507048e-05,0.1507250815629959,-9.727879524230955,-0.177846610546112
2.0497100353240967,9.72897032625042e-06,0.0052093984559178,0.0017291877884417,0.1712528467178344,-9.745355606079102,-0.1178329437971115
2.0547189712524414,9.72897032625042e-06,-2.658932498889044e-05,-0.0017614706885069,0.1711687743663787,-9.726092338562012,-0.1374288350343704
2.059727907180786,9.72897032625042e-06,0.0034640692174434,0.0017291877884417,0.1916124522686004,-9.72430419921875,-0.0970110893249511
2.0647380352020264,-0.003480929415673,0.0034640692174434,-0.0035067999269813,0.1910353600978851,-9.745745658874512,-0.1374019235372543
2.069746971130371,9.72897032625042e-06,0.0034640692174434,-1.6141464584507048e-05,0.1713891625404358,-9.725366592407228,-0.1174332648515701
2.074756145477295,-0.003480929415673,-2.658932498889044e-05,-1.6141464584507048e-05,0.1515225619077682,-9.70571231842041,-0.117460161447525
2.0797650814056396,0.0035003875382244,-2.658932498889044e-05,0.0034745170269161,0.1705916821956634,-9.747533798217772,-0.1778196990489959
2.08477520942688,9.72897032625042e-06,0.0034640692174434,-0.0017614706885069,0.1310266554355621,-9.74675178527832,-0.1386816799640655
2.0897841453552246,9.72897032625042e-06,-2.658932498889044e-05,0.0017291877884417,0.1513021737337112,-9.706438064575195,-0.1374557316303253
2.0947930812835693,0.0017550581833347,-2.658932498889044e-05,0.0052198460325598,0.1713050901889801,-9.706103324890137,-0.137029156088829
2.099802255630493,9.72897032625042e-06,0.0034640692174434,0.0034745170269161,0.1917487680912017,-9.704315185546877,-0.0966114103794097
2.1048121452331543,9.72897032625042e-06,0.0034640692174434,-1.6141464584507048e-05,0.1710847020149231,-9.706830024719238,-0.1570247411727905
2.109821081161499,-0.0017356002936139,-0.0017719186143949,0.0034745170269161,0.1713050901889801,-9.706103324890137,-0.137029156088829
2.114830255508423,9.72897032625042e-06,-2.658932498889044e-05,0.0034745170269161,0.1510295569896698,-9.746416091918944,-0.138255089521408
2.119840383529663,9.72897032625042e-06,0.0069547276943922,-1.6141464584507048e-05,0.1506728529930114,-9.767131805419922,-0.1586503535509109
2.1248490810394287,9.72897032625042e-06,0.0017187398625537,0.0017291877884417,0.2115313410758972,-9.704707145690918,-0.1161804050207138
2.1298582553863525,9.72897032625042e-06,0.0017187398625537,-1.6141464584507048e-05,0.1913079917430877,-9.705767631530762,-0.1366025656461715
2.1348683834075928,9.72897032625042e-06,-2.658932498889044e-05,-1.6141464584507048e-05,0.2112587094306945,-9.744685173034668,-0.1169797629117965
2.1398770809173584,9.72897032625042e-06,0.0017187398625537,0.0017291877884417,0.1509454697370529,-9.727153778076172,-0.1578509956598281
2.1448864936828613,9.72897032625042e-06,0.0017187398625537,0.0017291877884417,0.1713050901889801,-9.706103324890137,-0.137029156088829
2.149895191192627,9.72897032625042e-06,-2.658932498889044e-05,-1.6141464584507048e-05,0.1708120703697204,-9.746808052062988,-0.1578240990638733
2.154904365539551,9.72897032625042e-06,-2.658932498889044e-05,0.0017291877884417,0.1709483861923217,-9.726819038391112,-0.1574244201183319
2.159914255142212,9.72897032625042e-06,0.0017187398625537,0.0017291877884417,0.1910876035690307,-9.706494331359863,-0.156598150730133
2.1649234294891357,0.0035003875382244,0.0034640692174434,-1.6141464584507048e-05,0.1714414060115814,-9.686114311218262,-0.1366294920444488
2.1699323654174805,9.72897032625042e-06,0.0034640692174434,-1.6141464584507048e-05,0.1711687743663787,-9.726092338562012,-0.1374288350343704
2.1749422550201416,9.72897032625042e-06,-2.658932498889044e-05,0.0017291877884417,0.1711687743663787,-9.726092338562012,-0.1374288350343704
2.1799514293670654,-0.0017356002936139,-2.658932498889044e-05,-1.6141464584507048e-05,0.2113109529018402,-9.705432891845703,-0.1361759752035141
2.18496036529541,9.72897032625042e-06,-2.658932498889044e-05,-1.6141464584507048e-05,0.1911716759204864,-9.725756645202637,-0.1370022445917129
2.189969539642334,9.72897032625042e-06,-0.0017719186143949,-1.6141464584507048e-05,0.1719662547111511,-9.703925132751465,-0.0770424157381057
2.194979429244995,9.72897032625042e-06,0.0034640692174434,-1.6141464584507048e-05,0.1716095507144928,-9.724639892578123,-0.0974376797676086
2.199988603591919,-0.0017356002936139,0.0017187398625537,-1.6141464584507048e-05,0.1913920640945434,-9.725030899047852,-0.1170066744089126
2.2049975395202637,9.72897032625042e-06,-2.658932498889044e-05,0.0052198460325598,0.1713050901889801,-9.706103324890137,-0.137029156088829
2.21000337600708,0.0035003875382244,-2.658932498889044e-05,0.0017291877884417,0.1516588777303695,-9.685723304748535,-0.1170604974031448
2.2150068283081055,0.0017550581833347,0.0052093984559178,-1.6141464584507048e-05,0.1712528467178344,-9.745355606079102,-0.1178329437971115
2.2200100421905518,9.72897032625042e-06,0.0017187398625537,-1.6141464584507048e-05,0.1513862460851669,-9.725701332092283,-0.1178598403930664
2.225013256072998,9.72897032625042e-06,-0.003517247736454,-1.6141464584507048e-05,0.1710324585437774,-9.746081352233888,-0.1378285139799118
2.2300174236297607,0.0035003875382244,-2.658932498889044e-05,-1.6141464584507048e-05,0.1910353600978851,-9.745745658874512,-0.1374019235372543
2.235020399093628,9.72897032625042e-06,-2.658932498889044e-05,-1.6141464584507048e-05,0.1511658579111099,-9.72642707824707,-0.1378554105758667
2.240023612976074,9.72897032625042e-06,-2.658932498889044e-05,0.0017291877884417,0.1916646957397461,-9.685052871704102,-0.116207331418991
2.2450268268585205,9.72897032625042e-06,0.0017187398625537,-1.6141464584507048e-05,0.1709483861923217,-9.726819038391112,-0.1574244201183319
2.250030040740967,9.72897032625042e-06,0.0017187398625537,-1.6141464584507048e-05,0.1714414060115814,-9.686114311218262,-0.1366294920444488
2.2550342082977295,9.72897032625042e-06,-2.658932498889044e-05,-1.6141464584507048e-05,0.1911716759204864,-9.725756645202637,-0.1370022445917129
2.2600371837615967,0.0017550581833347,0.0034640692174434,-1.6141464584507048e-05,0.1905945837497711,-9.747198104858398,-0.1773931086063385
2.265040159225464,9.72897032625042e-06,0.0017187398625537,0.0034745170269161,0.1711165308952331,-9.765344619750977,-0.1182326227426529
2.2700443267822266,0.0017550581833347,0.0017187398625537,-1.6141464584507048e-05,0.1510295569896698,-9.746416091918944,-0.138255089521408
2.275047540664673,9.72897032625042e-06,0.0034640692174434,0.0017291877884417,0.1510817855596542,-9.707164764404297,-0.1574513167142868
2.280050277709961,-0.003480929415673,-2.658932498889044e-05,-1.6141464584507048e-05,0.1714414060115814,-9.686114311218262,-0.1366294920444488
2.2850546836853027,0.0017550581833347,-2.658932498889044e-05,0.0034745170269161,0.1715254783630371,-9.705377578735352,-0.1170335859060287
2.29005765914917,9.72897032625042e-06,0.0017187398625537,-1.6141464584507048e-05,0.1909512877464294,-9.726483345031738,-0.1569978296756744
2.295060873031616,-0.003480929415673,0.0017187398625537,-1.6141464584507048e-05,0.1710324585437774,-9.746081352233888,-0.1378285139799118
2.3000636100769043,0.0017550581833347,-2.658932498889044e-05,-1.6141464584507048e-05,0.1512499451637268,-9.74569034576416,-0.1182595193386077
2.3050668239593506,-0.003480929415673,-2.658932498889044e-05,-1.6141464584507048e-05,0.1710324585437774,-9.746081352233888,-0.1378285139799118
2.310070753097534,9.72897032625042e-06,0.0034640692174434,0.0034745170269161,0.1911716759204864,-9.725756645202637,-0.1370022445917129
2.3150739669799805,-0.0017356002936139,-2.658932498889044e-05,-1.6141464584507048e-05,0.1917487680912017,-9.704315185546877,-0.0966114103794097
2.3200769424438477,9.72897032625042e-06,0.0034640692174434,-1.6141464584507048e-05,0.2114472687244415,-9.685443878173828,-0.1357763111591339
2.325079917907715,-0.0017356002936139,0.0017187398625537,-1.6141464584507048e-05,0.1711687743663787,-9.726092338562012,-0.1374288350343704
2.3300840854644775,9.72897032625042e-06,-2.658932498889044e-05,0.0034745170269161,0.1908149719238281,-9.746472358703612,-0.1573975086212158
2.3350868225097656,9.72897032625042e-06,-2.658932498889044e-05,0.0034745170269161,0.1505887806415558,-9.747868537902832,-0.1782462894916534
2.340089797973633,-0.0017356002936139,-2.658932498889044e-05,-1.6141464584507048e-05,0.1508091688156128,-9.747142791748049,-0.1582506746053695
2.3450934886932373,9.72897032625042e-06,0.0017187398625537,-1.6141464584507048e-05,0.1712528467178344,-9.745355606079102,-0.1178329437971115
2.3500967025756836,9.72897032625042e-06,0.0052093984559178,0.0034745170269161,0.1513862460851669,-9.725701332092283,-0.1178598403930664
2.355099678039551,9.72897032625042e-06,-2.658932498889044e-05,0.0034745170269161,0.1513021737337112,-9.706438064575195,-0.1374557316303253
2.3601040840148926,9.72897032625042e-06,-2.658932498889044e-05,-1.6141464584507048e-05,0.1711687743663787,-9.726092338562012,-0.1374288350343704
2.3651065826416016,9.72897032625042e-06,-0.0017719186143949,0.0017291877884417,0.1713050901889801,-9.706103324890137,-0.137029156088829
2.3701090812683105,9.72897032625042e-06,0.0017187398625537,-1.6141464584507048e-05,0.1513021737337112,-9.706438064575195,-0.1374557316303253
2.3751132488250732,9.72897032625042e-06,-2.658932498889044e-05,-1.6141464584507048e-05,0.1716095507144928,-9.724639892578123,-0.0974376797676086
2.3801162242889404,9.72897032625042e-06,-2.658932498889044e-05,-1.6141464584507048e-05,0.1712528467178344,-9.745355606079102,-0.1178329437971115
2.3851191997528076,-0.0052262586541473,-2.658932498889044e-05,-1.6141464584507048e-05,0.1713891625404358,-9.725366592407228,-0.1174332648515701
2.3901219367980957,9.72897032625042e-06,0.0052093984559178,-1.6141464584507048e-05,0.1714414060115814,-9.686114311218262,-0.1366294920444488
2.3951258659362793,9.72897032625042e-06,0.0034640692174434,-1.6141464584507048e-05,0.1913079917430877,-9.705767631530762,-0.1366025656461715
2.4001286029815674,0.0017550581833347,0.0052093984559178,-1.6141464584507048e-05,0.1911716759204864,-9.725756645202637,-0.1370022445917129
2.4051315784454346,9.72897032625042e-06,0.0017187398625537,0.0034745170269161,0.1706757545471191,-9.766797065734863,-0.1582237780094146
2.4101345539093018,9.72897032625042e-06,-2.658932498889044e-05,0.0017291877884417,0.1508932411670684,-9.76640510559082,-0.1386547684669494
2.4151382446289062,9.72897032625042e-06,0.0017187398625537,-1.6141464584507048e-05,0.1513862460851669,-9.725701332092283,-0.1178598403930664
2.4201409816741943,0.0017550581833347,0.0017187398625537,0.0017291877884417,0.1712528467178344,-9.745355606079102,-0.1178329437971115
2.4251434803009033,9.72897032625042e-06,0.0034640692174434,-1.6141464584507048e-05,0.1714414060115814,-9.686114311218262,-0.1366294920444488
2.430147647857666,0.0017550581833347,0.0052093984559178,-1.6141464584507048e-05,0.1913079917430877,-9.705767631530762,-0.1366025656461715
2.435150384902954,9.72897032625042e-06,0.0017187398625537,-1.6141464584507048e-05,0.1716095507144928,-9.724639892578123,-0.0974376797676086
2.4401533603668213,0.0017550581833347,0.0034640692174434,-1.6141464584507048e-05,0.1910876035690307,-9.706494331359863,-0.156598150730133
2.4451560974121094,9.72897032625042e-06,0.0034640692174434,0.0017291877884417,0.1513862460851669,-9.725701332092283,-0.1178598403930664
2.4501585960388184,-0.0017356002936139,-2.658932498889044e-05,-1.6141464584507048e-05,0.1710324585437774,-9.746081352233888,-0.1378285139799118
2.455162286758423,9.72897032625042e-06,0.0017187398625537,0.0034745170269161,0.1513862460851669,-9.725701332092283,-0.1178598403930664
2.46016526222229,0.0017550581833347,-2.658932498889044e-05,0.0017291877884417,0.1513862460851669,-9.725701332092283,-0.1178598403930664
2.465167999267578,9.72897032625042e-06,0.0017187398625537,-0.0017614706885069,0.1912557482719421,-9.745019912719728,-0.117406353354454
2.4701716899871826,9.72897032625042e-06,-2.658932498889044e-05,0.0052198460325598,0.1911716759204864,-9.725756645202637,-0.1370022445917129
2.4751741886138916,9.72897032625042e-06,0.0034640692174434,0.0017291877884417,0.1705076098442077,-9.728271484375,-0.1974156200885772
2.4801766872406006,-0.0017356002936139,-2.658932498889044e-05,-1.6141464584507048e-05,0.1722127646207809,-9.68357276916504,-0.0666449517011642
2.4851796627044678,-0.0017356002936139,-2.658932498889044e-05,0.0017291877884417,0.1912557482719421,-9.745019912719728,-0.117406353354454
2.4901833534240723,9.72897032625042e-06,0.0052093984559178,0.0017291877884417,0.1511658579111099,-9.72642707824707,-0.1378554105758667
2.4951860904693604,-0.0017356002936139,-2.658932498889044e-05,0.0017291877884417,0.1512499451637268,-9.74569034576416,-0.1182595193386077
2.5001885890960693,0.0017550581833347,0.0034640692174434,-1.6141464584507048e-05,0.1713891625404358,-9.725366592407228,-0.1174332648515701
2.5051910877227783,0.0035003875382244,0.0017187398625537,0.0034745170269161,0.1517429500818252,-9.704985618591309,-0.0974645763635635
2.510195016860962,9.72897032625042e-06,0.0034640692174434,-1.6141464584507048e-05,0.1711687743663787,-9.726092338562012,-0.1374288350343704
2.51519775390625,9.72897032625042e-06,-2.658932498889044e-05,-1.6141464584507048e-05,0.1515225619077682,-9.70571231842041,-0.117460161447525
2.520200490951538,9.72897032625042e-06,0.0017187398625537,0.0017291877884417,0.1715254783630371,-9.705377578735352,-0.1170335859060287
2.5252039432525635,-0.003480929415673,0.0017187398625537,-1.6141464584507048e-05,0.1709483861923217,-9.726819038391112,-0.1574244201183319
2.5302064418792725,9.72897032625042e-06,-2.658932498889044e-05,-1.6141464584507048e-05,0.1513021737337112,-9.706438064575195,-0.1374557316303253
2.5352091789245605,9.72897032625042e-06,0.0017187398625537,0.0034745170269161,0.1714414060115814,-9.686114311218262,-0.1366294920444488
2.5402116775512695,9.72897032625042e-06,0.0034640692174434,0.0034745170269161,0.1514703333377838,-9.74496364593506,-0.0982639342546463
2.545215368270874,9.72897032625042e-06,0.0017187398625537,0.0017291877884417,0.1712528467178344,-9.745355606079102,-0.1178329437971115
2.550217866897583,0.0017550581833347,0.0017187398625537,-1.6141464584507048e-05,0.1710847020149231,-9.706830024719238,-0.1570247411727905
2.555220365524292,-0.0017356002936139,-2.658932498889044e-05,0.0017291877884417,0.1706757545471191,-9.766797065734863,-0.1582237780094146
2.560222864151001,-0.003480929415673,-2.658932498889044e-05,-1.6141464584507048e-05,0.1513862460851669,-9.725701332092283,-0.1178598403930664
2.5652265548706055,0.0017550581833347,0.0052093984559178,0.0052198460325598,0.1709483861923217,-9.726819038391112,-0.1574244201183319
2.5702292919158936,9.72897032625042e-06,-2.658932498889044e-05,0.0017291877884417,0.1716095507144928,-9.724639892578123,-0.0974376797676086
2.5752310752868652,-0.003480929415673,-2.658932498889044e-05,-1.6141464584507048e-05,0.1913079917430877,-9.705767631530762,-0.1366025656461715
2.5802340507507324,9.72897032625042e-06,0.0034640692174434,-1.6141464584507048e-05,0.1711687743663787,-9.726092338562012,-0.1374288350343704
2.585237503051758,9.72897032625042e-06,-2.658932498889044e-05,-1.6141464584507048e-05,0.1516066342592239,-9.724974632263184,-0.0978642553091049
2.590240001678467,9.72897032625042e-06,0.0052093984559178,-1.6141464584507048e-05,0.1910353600978851,-9.745745658874512,-0.1374019235372543
2.595242500305176,-0.0017356002936139,0.0017187398625537,-1.6141464584507048e-05,0.1713891625404358,-9.725366592407228,-0.1174332648515701
2.600245475769043,-0.0017356002936139,0.0034640692174434,-1.6141464584507048e-05,0.1711687743663787,-9.726092338562012,-0.1374288350343704
2.60524845123291,0.0035003875382244,0.0017187398625537,-1.6141464584507048e-05,0.1312992721796035,-9.70677375793457,-0.1378823220729828
2.610250949859619,0.0017550581833347,-2.658932498889044e-05,-1.6141464584507048e-05,0.1717458665370941,-9.70465087890625,-0.0970380008220672
2.6152536869049072,9.72897032625042e-06,-2.658932498889044e-05,0.0017291877884417,0.1714414060115814,-9.686114311218262,-0.1366294920444488
2.6202569007873535,9.72897032625042e-06,0.0034640692174434,0.0034745170269161,0.1317400485277176,-9.705321311950684,-0.097891166806221
2.625258684158325,-0.003480929415673,0.0034640692174434,0.0034745170269161,0.1711687743663787,-9.726092338562012,-0.1374288350343704
2.6302614212036133,0.0017550581833347,0.0034640692174434,-1.6141464584507048e-05,0.1717458665370941,-9.70465087890625,-0.0970380008220672
2.6352639198303223,-0.0017356002936139,0.0034640692174434,-0.0017614706885069,0.1911716759204864,-9.725756645202637,-0.1370022445917129
2.6402673721313477,9.72897032625042e-06,-2.658932498889044e-05,0.0017291877884417,0.1709483861923217,-9.726819038391112,-0.1574244201183319
2.6452696323394775,9.72897032625042e-06,0.0017187398625537,0.0017291877884417,0.1511658579111099,-9.72642707824707,-0.1378554105758667
2.6502721309661865,9.72897032625042e-06,0.0069547276943922,0.0017291877884417,0.1311629563570022,-9.726762771606444,-0.1382820010185241
2.655275344848633,0.0017550581833347,-2.658932498889044e-05,0.0017291877884417,0.1516066342592239,-9.724974632263184,-0.0978642553091049
2.660278081893921,9.72897032625042e-06,-2.658932498889044e-05,0.0017291877884417,0.1917487680912017,-9.704315185546877,-0.0966114103794097
2.6652801036834717,9.72897032625042e-06,-2.658932498889044e-05,-1.6141464584507048e-05,0.1709483861923217,-9.726819038391112,-0.1574244201183319
2.6702823638916016,0.0017550581833347,0.0017187398625537,0.0017291877884417,0.1511658579111099,-9.72642707824707,-0.1378554105758667
2.675285816192627,9.72897032625042e-06,0.0052093984559178,0.0034745170269161,0.1513862460851669,-9.725701332092283,-0.1178598403930664
2.680288076400757,9.72897032625042e-06,-2.658932498889044e-05,0.0017291877884417,0.1713050901889801,-9.706103324890137,-0.137029156088829
2.685290575027466,9.72897032625042e-06,0.0017187398625537,0.0017291877884417,0.1711687743663787,-9.726092338562012,-0.1374288350343704
2.690293788909912,9.72897032625042e-06,-2.658932498889044e-05,-1.6141464584507048e-05,0.1710324585437774,-9.746081352233888,-0.1378285139799118
2.695295810699463,0.0035003875382244,-2.658932498889044e-05,-1.6141464584507048e-05,0.1715254783630371,-9.705377578735352,-0.1170335859060287
2.700298309326172,0.0017550581833347,0.0034640692174434,0.0017291877884417,0.1717458665370941,-9.70465087890625,-0.0970380008220672
2.705301523208618,9.72897032625042e-06,0.0017187398625537,-1.6141464584507048e-05,0.1710324585437774,-9.746081352233888,-0.1378285139799118
2.710303783416748,9.72897032625042e-06,0.0017187398625537,0.0017291877884417,0.1911716759204864,-9.725756645202637,-0.1370022445917129
2.715306043624878,9.72897032625042e-06,-2.658932498889044e-05,0.0017291877884417,0.1513862460851669,-9.725701332092283,-0.1178598403930664
2.720308303833008,-0.0017356002936139,0.0017187398625537,0.0017291877884417,0.1713891625404358,-9.725366592407228,-0.1174332648515701
2.7253105640411377,9.72897032625042e-06,-2.658932498889044e-05,0.0034745170269161,0.1513862460851669,-9.725701332092283,-0.1178598403930664
2.730313777923584,-0.0017356002936139,-2.658932498889044e-05,0.0017291877884417,0.1911716759204864,-9.725756645202637,-0.1370022445917129
2.7353157997131348,9.72897032625042e-06,0.0017187398625537,-1.6141464584507048e-05,0.1708961427211761,-9.766070365905762,-0.1382281929254531
2.7403180599212646,9.72897032625042e-06,0.0017187398625537,-0.0017614706885069,0.1508613973855972,-9.707890510559082,-0.1774469316005706
2.7453203201293945,0.0017550581833347,-2.658932498889044e-05,-1.6141464584507048e-05,0.1715254783630371,-9.705377578735352,-0.1170335859060287
2.750323534011841,-0.0052262586541473,-2.658932498889044e-05,-1.6141464584507048e-05,0.1913079917430877,-9.705767631530762,-0.1366025656461715
2.7553255558013916,9.72897032625042e-06,0.0017187398625537,-1.6141464584507048e-05,0.1515225619077682,-9.70571231842041,-0.117460161447525
2.7603278160095215,9.72897032625042e-06,0.0034640692174434,0.0017291877884417,0.1710324585437774,-9.746081352233888,-0.1378285139799118
2.7653310298919678,9.72897032625042e-06,-2.658932498889044e-05,-1.6141464584507048e-05,0.1710324585437774,-9.746081352233888,-0.1378285139799118
2.7703332901000977,9.72897032625042e-06,0.0017187398625537,-1.6141464584507048e-05,0.1515225619077682,-9.70571231842041,-0.117460161447525
2.7753350734710693,0.0017550581833347,0.0034640692174434,0.0052198460325598,0.1511658579111099,-9.72642707824707,-0.1378554105758667
2.78033709526062,9.72897032625042e-06,-2.658932498889044e-05,-1.6141464584507048e-05,0.1715254783630371,-9.705377578735352,-0.1170335859060287
2.7853403091430664,9.72897032625042e-06,0.0017187398625537,-1.6141464584507048e-05,0.1720184981822967,-9.6646728515625,-0.0962386578321456
2.7903425693511963,9.72897032625042e-06,-2.658932498889044e-05,-1.6141464584507048e-05,0.1717458665370941,-9.70465087890625,-0.0970380008220672
2.795344591140747,0.0017550581833347,-2.658932498889044e-05,0.0052198460325598,0.1710324585437774,-9.746081352233888,-0.1378285139799118
2.800346612930298,-0.0017356002936139,-2.658932498889044e-05,0.0034745170269161,0.1508932411670684,-9.76640510559082,-0.1386547684669494
2.805349826812744,0.0035003875382244,-2.658932498889044e-05,-1.6141464584507048e-05,0.1510295569896698,-9.746416091918944,-0.138255089521408
2.810352087020874,9.72897032625042e-06,0.0017187398625537,0.0017291877884417,0.1716095507144928,-9.724639892578123,-0.0974376797676086
2.8153538703918457,0.0017550581833347,0.0034640692174434,0.0017291877884417,0.1713050901889801,-9.706103324890137,-0.137029156088829
2.820356845855713,9.72897032625042e-06,0.0017187398625537,-1.6141464584507048e-05,0.2116154134273529,-9.723969459533691,-0.0965844988822937
2.8253588676452637,9.72897032625042e-06,0.0034640692174434,0.0034745170269161,0.1511658579111099,-9.72642707824707,-0.1378554105758667
2.8303611278533936,9.72897032625042e-06,0.0017187398625537,0.0034745170269161,0.1713891625404358,-9.725366592407228,-0.1174332648515701
2.835362672805786,9.72897032625042e-06,0.0052093984559178,0.0034745170269161,0.1511136293411255,-9.765679359436035,-0.1186591982841491
2.8403658866882324,9.72897032625042e-06,-0.003517247736454,-1.6141464584507048e-05,0.1708120703697204,-9.746808052062988,-0.1578240990638733
2.845367908477783,9.72897032625042e-06,-2.658932498889044e-05,0.0034745170269161,0.1705394387245178,-9.786786079406738,-0.158623456954956
2.850369930267334,-0.0017356002936139,0.0017187398625537,0.0034745170269161,0.1513862460851669,-9.725701332092283,-0.1178598403930664
2.8553719520568848,9.72897032625042e-06,-2.658932498889044e-05,-1.6141464584507048e-05,0.1714414060115814,-9.686114311218262,-0.1366294920444488
2.860374689102173,9.72897032625042e-06,0.0017187398625537,0.0034745170269161,0.191223919391632,-9.686505317687988,-0.1561984866857528
2.8653769493103027,9.72897032625042e-06,0.0034640692174434,-1.6141464584507048e-05,0.1515225619077682,-9.70571231842041,-0.117460161447525
2.8703789710998535,9.72897032625042e-06,-2.658932498889044e-05,0.0017291877884417,0.1710324585437774,-9.746081352233888,-0.1378285139799118
2.875380754470825,9.72897032625042e-06,-2.658932498889044e-05,0.0017291877884417,0.1704553663730621,-9.767522811889648,-0.1782193779945373
2.8803834915161133,9.72897032625042e-06,-2.658932498889044e-05,-0.0017614706885069,0.1516907215118408,-9.744237899780272,-0.0782683491706848
2.885385513305664,-0.0017356002936139,0.0017187398625537,0.0017291877884417,0.1912557482719421,-9.745019912719728,-0.117406353354454
2.890387535095215,9.72897032625042e-06,-2.658932498889044e-05,-1.6141464584507048e-05,0.1911716759204864,-9.725756645202637,-0.1370022445917129
2.895390272140503,0.0017550581833347,0.0034640692174434,0.0017291877884417,0.1916646957397461,-9.685052871704102,-0.116207331418991
2.9003922939300537,9.72897032625042e-06,-2.658932498889044e-05,0.0017291877884417,0.1513021737337112,-9.706438064575195,-0.1374557316303253
2.9053943157196045,-0.0017356002936139,0.0034640692174434,-0.0035067999269813,0.1716617941856384,-9.685388565063477,-0.1166339218616485
2.910396099090576,9.72897032625042e-06,0.0034640692174434,-1.6141464584507048e-05,0.1911194324493408,-9.765008926391602,-0.1178060322999954
2.9153988361358643,9.72897032625042e-06,-2.658932498889044e-05,-1.6141464584507048e-05,0.1710324585437774,-9.746081352233888,-0.1378285139799118
2.920400619506836,9.72897032625042e-06,0.0017187398625537,-1.6141464584507048e-05,0.1507569253444671,-9.786394119262695,-0.1390544474124908
2.925402879714966,-0.0017356002936139,0.0034640692174434,-1.6141464584507048e-05,0.1508932411670684,-9.76640510559082,-0.1386547684669494
2.9304041862487793,9.72897032625042e-06,0.0017187398625537,-1.6141464584507048e-05,0.1709483861923217,-9.726819038391112,-0.1574244201183319
2.9354071617126465,9.72897032625042e-06,-2.658932498889044e-05,0.0034745170269161,0.1520155817270279,-9.66500759124756,-0.0966652333736419
2.940408945083618,9.72897032625042e-06,0.0034640692174434,0.0034745170269161,0.1712210178375244,-9.686841011047363,-0.1566250771284103
2.945410966873169,9.72897032625042e-06,0.0017187398625537,-1.6141464584507048e-05,0.1515225619077682,-9.70571231842041,-0.117460161447525
2.950413465499878,9.72897032625042e-06,-2.658932498889044e-05,0.0017291877884417,0.1711687743663787,-9.726092338562012,-0.1374288350343704
2.9554154872894287,9.72897032625042e-06,0.0017187398625537,0.0017291877884417,0.1513340175151825,-9.764952659606934,-0.0986636132001876
2.9604172706604004,9.72897032625042e-06,0.0017187398625537,-1.6141464584507048e-05,0.1510295569896698,-9.746416091918944,-0.138255089521408
2.9654200077056885,9.72897032625042e-06,0.0017187398625537,0.0034745170269161,0.1513021737337112,-9.706438064575195,-0.1374557316303253
2.970421552658081,9.72897032625042e-06,0.0017187398625537,-1.6141464584507048e-05,0.1916646957397461,-9.685052871704102,-0.116207331418991
2.9754233360290527,9.72897032625042e-06,0.0034640692174434,0.0017291877884417,0.1516588777303695,-9.685723304748535,-0.1170604974031448
2.9804251194000244,9.72897032625042e-06,-2.658932498889044e-05,-1.6141464584507048e-05,0.1718821823596954,-9.684661865234377,-0.096638336777687
2.9854280948638916,9.72897032625042e-06,0.0052093984559178,0.0017291877884417,0.1517429500818252,-9.704985618591309,-0.0974645763635635
2.990429639816284,9.72897032625042e-06,0.0034640692174434,0.0052198460325598,0.1513340175151825,-9.764952659606934,-0.0986636132001876
2.995431423187256,9.72897032625042e-06,0.0052093984559178,0.0034745170269161,0.1513862460851669,-9.725701332092283,-0.1178598403930664
3.0004329681396484,9.72897032625042e-06,0.0017187398625537,-1.6141464584507048e-05,0.1712528467178344,-9.745355606079102,-0.1178329437971115
3.0054354667663574,9.72897032625042e-06,-2.658932498889044e-05,0.0034745170269161,0.1716095507144928,-9.724639892578123,-0.0974376797676086
3.010437250137329,9.72897032625042e-06,-2.658932498889044e-05,0.0017291877884417,0.1711687743663787,-9.726092338562012,-0.1374288350343704
3.015439033508301,9.72897032625042e-06,-2.658932498889044e-05,0.0034745170269161,0.2113950252532959,-9.724696159362791,-0.1165800839662551
3.0204405784606934,9.72897032625042e-06,-2.658932498889044e-05,0.0017291877884417,0.1916124522686004,-9.72430419921875,-0.0970110893249511
3.0254430770874023,9.72897032625042e-06,-2.658932498889044e-05,-1.6141464584507048e-05,0.1913920640945434,-9.725030899047852,-0.1170066744089126
3.030445098876953,-0.0017356002936139,0.0017187398625537,-1.6141464584507048e-05,0.1510295569896698,-9.746416091918944,-0.138255089521408
3.0354464054107666,-0.003480929415673,-2.658932498889044e-05,0.0052198460325598,0.1713891625404358,-9.725366592407228,-0.1174332648515701
3.0404481887817383,-0.0017356002936139,0.0017187398625537,-1.6141464584507048e-05,0.1515225619077682,-9.70571231842041,-0.117460161447525
3.0454506874084473,9.72897032625042e-06,0.0017187398625537,-1.6141464584507048e-05,0.1716617941856384,-9.685388565063477,-0.1166339218616485
3.050452470779419,9.72897032625042e-06,0.0017187398625537,-0.0017614706885069,0.1717458665370941,-9.70465087890625,-0.0970380008220672
3.0554540157318115,9.72897032625042e-06,0.0034640692174434,0.0017291877884417,0.1713050901889801,-9.706103324890137,-0.137029156088829
3.0604562759399414,9.72897032625042e-06,-2.658932498889044e-05,0.0017291877884417,0.1518270224332809,-9.724248886108398,-0.0778686702251434
3.065458297729492,0.0017550581833347,-2.658932498889044e-05,-1.6141464584507048e-05,0.1913920640945434,-9.725030899047852,-0.1170066744089126
3.0704596042633057,-0.0017356002936139,-2.658932498889044e-05,-1.6141464584507048e-05,0.1513862460851669,-9.725701332092283,-0.1178598403930664
3.0754621028900146,0.0017550581833347,0.0034640692174434,-1.6141464584507048e-05,0.1909512877464294,-9.726483345031738,-0.1569978296756744
3.0804638862609863,9.72897032625042e-06,-2.658932498889044e-05,0.0017291877884417,0.1515225619077682,-9.70571231842041,-0.117460161447525
3.0854651927948,9.72897032625042e-06,0.0034640692174434,-1.6141464584507048e-05,0.1517429500818252,-9.704985618591309,-0.0974645763635635
3.0904667377471924,9.72897032625042e-06,-2.658932498889044e-05,0.0017291877884417,0.1709483861923217,-9.726819038391112,-0.1574244201183319
3.095468282699585,9.72897032625042e-06,0.0052093984559178,-1.6141464584507048e-05,0.1713891625404358,-9.725366592407228,-0.1174332648515701
3.100471019744873,-0.0017356002936139,-2.658932498889044e-05,0.0017291877884417,0.1710324585437774,-9.746081352233888,-0.1378285139799118
3.1054723262786865,9.72897032625042e-06,-2.658932498889044e-05,-1.6141464584507048e-05,0.2113950252532959,-9.724696159362791,-0.1165800839662551
3.110473871231079,0.0017550581833347,0.0034640692174434,-1.6141464584507048e-05,0.1515225619077682,-9.70571231842041,-0.117460161447525
3.115476369857788,9.72897032625042e-06,0.0017187398625537,-1.6141464584507048e-05,0.1717458665370941,-9.70465087890625,-0.0970380008220672
3.1204776763916016,0.0017550581833347,-2.658932498889044e-05,0.0034745170269161,0.1513862460851669,-9.725701332092283,-0.1178598403930664
3.125479221343994,9.72897032625042e-06,-2.658932498889044e-05,-1.6141464584507048e-05,0.1715254783630371,-9.705377578735352,-0.1170335859060287
3.1304807662963867,9.72897032625042e-06,0.0017187398625537,0.0017291877884417,0.1713891625404358,-9.725366592407228,-0.1174332648515701
3.1354830265045166,9.72897032625042e-06,0.0034640692174434,0.0017291877884417,0.1507250815629959,-9.727879524230955,-0.177846610546112
3.140484571456909,0.0017550581833347,0.0017187398625537,0.0034745170269161,0.1512499451637268,-9.74569034576416,-0.1182595193386077
3.1454858779907227,9.72897032625042e-06,-2.658932498889044e-05,-0.0017614706885069,0.1916646957397461,-9.685052871704102,-0.116207331418991
3.150487184524536,0.0017550581833347,0.0034640692174434,0.0017291877884417,0.1712528467178344,-9.745355606079102,-0.1178329437971115
3.155489683151245,-0.0017356002936139,0.0017187398625537,0.0017291877884417,0.1713891625404358,-9.725366592407228,-0.1174332648515701
3.1604912281036377,9.72897032625042e-06,0.0034640692174434,-1.6141464584507048e-05,0.1713891625404358,-9.725366592407228,-0.1174332648515701
3.165492296218872,0.0017550581833347,-2.658932498889044e-05,-1.6141464584507048e-05,0.1510295569896698,-9.746416091918944,-0.138255089521408
3.170494794845581,-0.0017356002936139,0.0017187398625537,0.0017291877884417,0.1509454697370529,-9.727153778076172,-0.1578509956598281
3.1754961013793945,9.72897032625042e-06,0.0017187398625537,-1.6141464584507048e-05,0.1711687743663787,-9.726092338562012,-0.1374288350343704
3.180497646331787,-0.0017356002936139,-0.0017719186143949,0.0017291877884417,0.1509454697370529,-9.727153778076172,-0.1578509956598281
3.185499668121338,9.72897032625042e-06,0.0017187398625537,0.0034745170269161,0.1709483861923217,-9.726819038391112,-0.1574244201183319
3.1905012130737305,-0.0017356002936139,0.0017187398625537,0.0017291877884417,0.1910876035690307,-9.706494331359863,-0.156598150730133
3.195502281188965,9.72897032625042e-06,-2.658932498889044e-05,-1.6141464584507048e-05,0.1711687743663787,-9.726092338562012,-0.1374288350343704
3.2005038261413574,9.72897032625042e-06,-2.658932498889044e-05,-1.6141464584507048e-05,0.1711687743663787,-9.726092338562012,-0.1374288350343704
3.2055060863494873,9.72897032625042e-06,-2.658932498889044e-05,-1.6141464584507048e-05,0.1708643138408661,-9.707555770874023,-0.1770203411579132
3.2105088233947754,9.72897032625042e-06,0.0017187398625537,0.0017291877884417,0.1511658579111099,-9.72642707824707,-0.1378554105758667
3.215510606765747,0.0017550581833347,0.0034640692174434,0.0017291877884417,0.1717458665370941,-9.70465087890625,-0.0970380008220672
3.220512628555298,9.72897032625042e-06,0.0017187398625537,-1.6141464584507048e-05,0.1911716759204864,-9.725756645202637,-0.1370022445917129
3.225515365600586,9.72897032625042e-06,-2.658932498889044e-05,-1.6141464584507048e-05,0.1715254783630371,-9.705377578735352,-0.1170335859060287
3.2305173873901367,9.72897032625042e-06,-0.0017719186143949,0.0017291877884417,0.1511658579111099,-9.72642707824707,-0.1378554105758667
3.2355191707611084,9.72897032625042e-06,0.0017187398625537,-1.6141464584507048e-05,0.1713050901889801,-9.706103324890137,-0.137029156088829
3.24052095413208,9.72897032625042e-06,0.0017187398625537,-1.6141464584507048e-05,0.1710324585437774,-9.746081352233888,-0.1378285139799118
3.2455239295959473,-0.0017356002936139,0.0017187398625537,-1.6141464584507048e-05,0.1710324585437774,-9.746081352233888,-0.1378285139799118
3.25052547454834,9.72897032625042e-06,0.0017187398625537,-1.6141464584507048e-05,0.1503683924674987,-9.748595237731934,-0.1982418596744537
3.2555274963378906,-0.003480929415673,-0.0017719186143949,-1.6141464584507048e-05,0.1711687743663787,-9.726092338562012,-0.1374288350343704
3.2605302333831787,9.72897032625042e-06,0.0034640692174434,-1.6141464584507048e-05,0.1513862460851669,-9.725701332092283,-0.1178598403930664
3.2655322551727295,9.72897032625042e-06,0.0034640692174434,0.0017291877884417,0.1713050901889801,-9.706103324890137,-0.137029156088829
3.270533800125122,0.0017550581833347,-2.658932498889044e-05,0.0034745170269161,0.1918850839138031,-9.684326171875,-0.0962117463350296
3.2755355834960938,-0.0017356002936139,0.0034640692174434,0.0034745170269161,0.1911716759204864,-9.725756645202637,-0.1370022445917129
3.280538558959961,0.0017550581833347,0.0017187398625537,-1.6141464584507048e-05,0.1713050901889801,-9.706103324890137,-0.137029156088829
3.2855403423309326,-0.0017356002936139,-2.658932498889044e-05,-0.0035067999269813,0.1708961427211761,-9.766070365905762,-0.1382281929254531
3.290541887283325,0.0017550581833347,0.0034640692174434,0.0052198460325598,0.1710324585437774,-9.746081352233888,-0.1378285139799118
3.295543670654297,9.72897032625042e-06,0.0017187398625537,0.0017291877884417,0.1912557482719421,-9.745019912719728,-0.117406353354454
3.300546407699585,-0.0017356002936139,0.0034640692174434,0.0017291877884417,0.1711687743663787,-9.726092338562012,-0.1374288350343704
3.3055484294891357,9.72897032625042e-06,-2.658932498889044e-05,0.0017291877884417,0.1509454697370529,-9.727153778076172,-0.1578509956598281
3.3105499744415283,9.72897032625042e-06,-2.658932498889044e-05,0.0017291877884417,0.1515225619077682,-9.70571231842041,-0.117460161447525
3.3155527114868164,-0.0017356002936139,0.0034640692174434,-1.6141464584507048e-05,0.1513021737337112,-9.706438064575195,-0.1374557316303253
3.320554494857788,0.0017550581833347,0.0017187398625537,0.0052198460325598,0.1510295569896698,-9.746416091918944,-0.138255089521408
3.3255560398101807,9.72897032625042e-06,0.0034640692174434,-1.6141464584507048e-05,0.1512499451637268,-9.74569034576416,-0.1182595193386077
3.3305578231811523,9.72897032625042e-06,0.0034640692174434,-0.0017614706885069,0.1710847020149231,-9.706830024719238,-0.1570247411727905
3.3355605602264404,9.72897032625042e-06,0.0034640692174434,0.0017291877884417,0.1510817855596542,-9.707164764404297,-0.1574513167142868
3.340562105178833,9.72897032625042e-06,0.0017187398625537,-1.6141464584507048e-05,0.1917487680912017,-9.704315185546877,-0.0966114103794097
3.3455636501312256,-0.0017356002936139,-2.658932498889044e-05,-1.6141464584507048e-05,0.1713050901889801,-9.706103324890137,-0.137029156088829
3.3505654335021973,9.72897032625042e-06,-2.658932498889044e-05,-1.6141464584507048e-05,0.1508932411670684,-9.76640510559082,-0.1386547684669494
3.3555681705474854,9.72897032625042e-06,0.0017187398625537,0.0017291877884417,0.1708961427211761,-9.766070365905762,-0.1382281929254531
3.360569477081299,9.72897032625042e-06,-2.658932498889044e-05,0.0017291877884417,0.1711687743663787,-9.726092338562012,-0.1374288350343704
3.3655712604522705,-0.0017356002936139,-2.658932498889044e-05,0.0017291877884417,0.1705916821956634,-9.747533798217772,-0.1778196990489959
3.3705732822418213,9.72897032625042e-06,0.0017187398625537,-1.6141464584507048e-05,0.1715777218341827,-9.666125297546388,-0.1362298130989074
3.375575542449951,9.72897032625042e-06,-2.658932498889044e-05,-1.6141464584507048e-05,0.1714414060115814,-9.686114311218262,-0.1366294920444488
3.3805770874023438,-0.0017356002936139,-2.658932498889044e-05,0.0017291877884417,0.1715254783630371,-9.705377578735352,-0.1170335859060287
3.3855788707733154,0.0017550581833347,0.0017187398625537,-0.0017614706885069,0.1316037327051162,-9.72531032562256,-0.0982908457517623
3.3905813694000244,9.72897032625042e-06,0.0034640692174434,-1.6141464584507048e-05,0.1713891625404358,-9.725366592407228,-0.1174332648515701
3.395582675933838,9.72897032625042e-06,-2.658932498889044e-05,0.0034745170269161,0.1511136293411255,-9.765679359436035,-0.1186591982841491
3.4005844593048096,9.72897032625042e-06,0.0052093984559178,-1.6141464584507048e-05,0.1715254783630371,-9.705377578735352,-0.1170335859060287
3.4055871963500977,9.72897032625042e-06,-0.0017719186143949,0.0017291877884417,0.1717458665370941,-9.70465087890625,-0.0970380008220672
3.410588502883911,9.72897032625042e-06,0.0052093984559178,0.0034745170269161,0.1513021737337112,-9.706438064575195,-0.1374557316303253
3.415590286254883,9.72897032625042e-06,0.0017187398625537,-1.6141464584507048e-05,0.1917487680912017,-9.704315185546877,-0.0966114103794097
3.4205918312072754,9.72897032625042e-06,0.0034640692174434,0.0052198460325598,0.1716095507144928,-9.724639892578123,-0.0974376797676086
3.4255943298339844,9.72897032625042e-06,-2.658932498889044e-05,-1.6141464584507048e-05,0.1710324585437774,-9.746081352233888,-0.1378285139799118
3.430595636367798,9.72897032625042e-06,0.0034640692174434,0.0017291877884417,0.1507250815629959,-9.727879524230955,-0.177846610546112
3.4355974197387695,9.72897032625042e-06,-2.658932498889044e-05,-1.6141464584507048e-05,0.1710847020149231,-9.706830024719238,-0.1570247411727905
3.440598964691162,9.72897032625042e-06,0.0034640692174434,-1.6141464584507048e-05,0.1913920640945434,-9.725030899047852,-0.1170066744089126
3.445601224899292,-0.0017356002936139,-2.658932498889044e-05,0.0034745170269161,0.1716617941856384,-9.685388565063477,-0.1166339218616485
3.4506027698516846,9.72897032625042e-06,0.0017187398625537,-1.6141464584507048e-05,0.1910876035690307,-9.706494331359863,-0.156598150730133
3.455604314804077,-0.0017356002936139,-2.658932498889044e-05,-1.6141464584507048e-05,0.1713050901889801,-9.706103324890137,-0.137029156088829
3.460606575012207,9.72897032625042e-06,-2.658932498889044e-05,0.0017291877884417,0.1912557482719421,-9.745019912719728,-0.117406353354454
3.4656081199645996,9.72897032625042e-06,0.0017187398625537,-1.6141464584507048e-05,0.1713050901889801,-9.706103324890137,-0.137029156088829
3.470609664916992,9.72897032625042e-06,-2.658932498889044e-05,-1.6141464584507048e-05,0.1914761364459991,-9.744293212890623,-0.0974107682704925
3.4756109714508057,-0.0017356002936139,0.0034640692174434,-1.6141464584507048e-05,0.1915283799171447,-9.705041885375977,-0.1166069954633712
3.4806134700775146,9.72897032625042e-06,-2.658932498889044e-05,0.0034745170269161,0.1914443075656891,-9.685778617858888,-0.1362029016017913
3.4856150150299072,9.72897032625042e-06,0.0034640692174434,-1.6141464584507048e-05,0.1911716759204864,-9.725756645202637,-0.1370022445917129
3.4906163215637207,9.72897032625042e-06,-2.658932498889044e-05,-1.6141464584507048e-05,0.1713050901889801,-9.706103324890137,-0.137029156088829
3.4956178665161133,9.72897032625042e-06,0.0017187398625537,0.0017291877884417,0.1508091688156128,-9.747142791748049,-0.1582506746053695
3.5006191730499268,9.72897032625042e-06,-2.658932498889044e-05,-1.6141464584507048e-05,0.1709483861923217,-9.726819038391112,-0.1574244201183319
3.5056216716766357,9.72897032625042e-06,-2.658932498889044e-05,0.0052198460325598,0.1712528467178344,-9.745355606079102,-0.1178329437971115
3.510622978210449,9.72897032625042e-06,-2.658932498889044e-05,-1.6141464584507048e-05,0.1510817855596542,-9.707164764404297,-0.1574513167142868
3.515625476837158,9.72897032625042e-06,-2.658932498889044e-05,0.0017291877884417,0.1516588777303695,-9.685723304748535,-0.1170604974031448
3.5206267833709717,9.72897032625042e-06,-2.658932498889044e-05,0.0034745170269161,0.1717458665370941,-9.70465087890625,-0.0970380008220672
3.525628089904785,0.0017550581833347,0.0017187398625537,0.0017291877884417,0.2112587094306945,-9.744685173034668,-0.1169797629117965
3.5306293964385986,-0.0017356002936139,-2.658932498889044e-05,-1.6141464584507048e-05,0.1714732348918914,-9.74462890625,-0.09783735871315
3.5356318950653076,9.72897032625042e-06,-2.658932498889044e-05,0.0017291877884417,0.1909512877464294,-9.726483345031738,-0.1569978296756744
3.540632963180542,-0.0017356002936139,-2.658932498889044e-05,-1.6141464584507048e-05,0.1909512877464294,-9.726483345031738,-0.1569978296756744
3.5456342697143555,-0.0017356002936139,-2.658932498889044e-05,-1.6141464584507048e-05,0.1712528467178344,-9.745355606079102,-0.1178329437971115
3.550635814666748,9.72897032625042e-06,-2.658932498889044e-05,-1.6141464584507048e-05,0.1713050901889801,-9.706103324890137,-0.137029156088829
3.555638074874878,-0.0017356002936139,0.0017187398625537,-1.6141464584507048e-05,0.1711687743663787,-9.726092338562012,-0.1374288350343704
3.5606393814086914,9.72897032625042e-06,-2.658932498889044e-05,0.0017291877884417,0.1513862460851669,-9.725701332092283,-0.1178598403930664
3.565640687942505,9.72897032625042e-06,0.0034640692174434,-1.6141464584507048e-05,0.1910353600978851,-9.745745658874512,-0.1374019235372543
3.5706429481506348,9.72897032625042e-06,0.0017187398625537,-1.6141464584507048e-05,0.1711687743663787,-9.726092338562012,-0.1374288350343704
3.5756442546844482,9.72897032625042e-06,0.0017187398625537,-1.6141464584507048e-05,0.1711165308952331,-9.765344619750977,-0.1182326227426529
3.5806455612182617,9.72897032625042e-06,0.0017187398625537,-1.6141464584507048e-05,0.1713369190692901,-9.764617919921877,-0.0982370376586914
3.585646629333496,9.72897032625042e-06,0.0017187398625537,0.0034745170269161,0.1516066342592239,-9.724974632263184,-0.0978642553091049
3.590648889541626,9.72897032625042e-06,0.0017187398625537,0.0034745170269161,0.1913920640945434,-9.725030899047852,-0.1170066744089126
3.5956501960754395,9.72897032625042e-06,-2.658932498889044e-05,-1.6141464584507048e-05,0.1718821823596954,-9.684661865234377,-0.096638336777687
3.600651264190674,-0.0017356002936139,0.0034640692174434,0.0017291877884417,0.1717458665370941,-9.70465087890625,-0.0970380008220672
3.6056535243988037,9.72897032625042e-06,-2.658932498889044e-05,0.0017291877884417,0.1517429500818252,-9.704985618591309,-0.0974645763635635
3.610654830932617,9.72897032625042e-06,0.0052093984559178,0.0017291877884417,0.1512499451637268,-9.74569034576416,-0.1182595193386077
3.6156558990478516,-0.0017356002936139,-2.658932498889044e-05,-1.6141464584507048e-05,0.1711165308952331,-9.765344619750977,-0.1182326227426529
3.620657205581665,9.72897032625042e-06,-2.658932498889044e-05,0.0017291877884417,0.1715254783630371,-9.705377578735352,-0.1170335859060287
3.625659465789795,-0.003480929415673,-2.658932498889044e-05,0.0017291877884417,0.1913079917430877,-9.705767631530762,-0.1366025656461715
3.63066029548645,9.72897032625042e-06,0.0034640692174434,0.0017291877884417,0.191223919391632,-9.686505317687988,-0.1561984866857528
3.635662078857422,9.72897032625042e-06,0.0034640692174434,-1.6141464584507048e-05,0.1909512877464294,-9.726483345031738,-0.1569978296756744
3.6406631469726562,0.0035003875382244,0.0052093984559178,0.0034745170269161,0.1511658579111099,-9.72642707824707,-0.1378554105758667
3.645664691925049,9.72897032625042e-06,0.0017187398625537,-1.6141464584507048e-05,0.1712528467178344,-9.745355606079102,-0.1178329437971115
3.6506662368774414,9.72897032625042e-06,0.0017187398625537,0.0034745170269161,0.1711165308952331,-9.765344619750977,-0.1182326227426529
3.655667543411255,-0.0017356002936139,0.0017187398625537,0.0017291877884417,0.1509454697370529,-9.727153778076172,-0.1578509956598281
3.66066837310791,9.72897032625042e-06,0.0052093984559178,-1.6141464584507048e-05,0.1913920640945434,-9.725030899047852,-0.1170066744089126
3.66567063331604,9.72897032625042e-06,0.0017187398625537,-1.6141464584507048e-05,0.1715254783630371,-9.705377578735352,-0.1170335859060287
3.6706719398498535,9.72897032625042e-06,-2.658932498889044e-05,0.0034745170269161,0.1516588777303695,-9.685723304748535,-0.1170604974031448
3.675672769546509,-0.0017356002936139,0.0017187398625537,-1.6141464584507048e-05,0.1313833445310592,-9.72603702545166,-0.1182864308357238
3.6806750297546387,9.72897032625042e-06,-2.658932498889044e-05,0.0069651752710342,0.1712210178375244,-9.686841011047363,-0.1566250771284103
3.685676097869873,-0.0017356002936139,-2.658932498889044e-05,0.0017291877884417,0.1913079917430877,-9.705767631530762,-0.1366025656461715
3.6906771659851074,9.72897032625042e-06,-2.658932498889044e-05,-1.6141464584507048e-05,0.2111746370792389,-9.725421905517578,-0.1365756541490554
3.695678234100342,-0.0017356002936139,-2.658932498889044e-05,0.0034745170269161,0.1708961427211761,-9.766070365905762,-0.1382281929254531
3.700679302215576,9.72897032625042e-06,0.0034640692174434,0.0034745170269161,0.1913920640945434,-9.725030899047852,-0.1170066744089126
3.705681085586548,-0.0017356002936139,-2.658932498889044e-05,0.0017291877884417,0.1719662547111511,-9.703925132751465,-0.0770424157381057
3.7106823921203613,9.72897032625042e-06,-2.658932498889044e-05,0.0052198460325598,0.1716095507144928,-9.724639892578123,-0.0974376797676086
3.7156832218170166,-0.0017356002936139,-2.658932498889044e-05,-0.0017614706885069,0.1711687743663787,-9.726092338562012,-0.1374288350343704
3.7206854820251465,0.0017550581833347,-2.658932498889044e-05,0.0052198460325598,0.1513862460851669,-9.725701332092283,-0.1178598403930664
3.725686550140381,9.72897032625042e-06,0.0017187398625537,-1.6141464584507048e-05,0.1913079917430877,-9.705767631530762,-0.1366025656461715
3.730687379837036,9.72897032625042e-06,0.0017187398625537,-1.6141464584507048e-05,0.1713891625404358,-9.725366592407228,-0.1174332648515701
3.7356884479522705,0.0017550581833347,0.0034640692174434,-1.6141464584507048e-05,0.1516066342592239,-9.724974632263184,-0.0978642553091049
3.7406904697418213,9.72897032625042e-06,-2.658932498889044e-05,0.0017291877884417,0.1713891625404358,-9.725366592407228,-0.1174332648515701
3.7456912994384766,9.72897032625042e-06,-2.658932498889044e-05,-1.6141464584507048e-05,0.1710324585437774,-9.746081352233888,-0.1378285139799118
3.750692367553711,0.0017550581833347,0.0052093984559178,0.0052198460325598,0.1713891625404358,-9.725366592407228,-0.1174332648515701
3.7556936740875244,9.72897032625042e-06,-2.658932498889044e-05,-1.6141464584507048e-05,0.1718299388885498,-9.72391414642334,-0.0774420946836471
3.760695219039917,9.72897032625042e-06,-2.658932498889044e-05,-1.6141464584507048e-05,0.1711165308952331,-9.765344619750977,-0.1182326227426529
3.7656962871551514,9.72897032625042e-06,-2.658932498889044e-05,0.0052198460325598,0.1507250815629959,-9.727879524230955,-0.177846610546112
3.7706973552703857,-0.003480929415673,-2.658932498889044e-05,0.0017291877884417,0.1508091688156128,-9.747142791748049,-0.1582506746053695
3.7756991386413574,-0.0017356002936139,-2.658932498889044e-05,0.0052198460325598,0.1519633382558822,-9.704259872436523,-0.077468991279602
3.780700206756592,9.72897032625042e-06,0.0052093984559178,-1.6141464584507048e-05,0.1715254783630371,-9.705377578735352,-0.1170335859060287
3.785700798034668,-0.003480929415673,0.0034640692174434,-1.6141464584507048e-05,0.1715254783630371,-9.705377578735352,-0.1170335859060287
3.7907018661499023,0.0017550581833347,0.0034640692174434,-1.6141464584507048e-05,0.1711687743663787,-9.726092338562012,-0.1374288350343704
3.795703887939453,-0.003480929415673,-2.658932498889044e-05,-0.0017614706885069,0.1705916821956634,-9.747533798217772,-0.1778196990489959
3.8007044792175293,9.72897032625042e-06,-2.658932498889044e-05,0.0052198460325598,0.1711687743663787,-9.726092338562012,-0.1374288350343704
3.8057055473327637,9.72897032625042e-06,0.0034640692174434,0.0017291877884417,0.1711687743663787,-9.726092338562012,-0.1374288350343704
3.8107075691223145,-0.0017356002936139,-2.658932498889044e-05,0.0017291877884417,0.1713050901889801,-9.706103324890137,-0.137029156088829
3.8157081604003906,9.72897032625042e-06,0.0017187398625537,0.0017291877884417,0.1717981100082397,-9.665399551391602,-0.1162342429161071
3.820709228515625,9.72897032625042e-06,0.0017187398625537,-1.6141464584507048e-05,0.1511658579111099,-9.72642707824707,-0.1378554105758667
3.825709819793701,9.72897032625042e-06,-2.658932498889044e-05,0.0017291877884417,0.1716095507144928,-9.724639892578123,-0.0974376797676086
3.830712080001831,9.72897032625042e-06,0.0017187398625537,0.0034745170269161,0.1708961427211761,-9.766070365905762,-0.1382281929254531
3.8357126712799072,0.0017550581833347,0.0034640692174434,0.0017291877884417,0.1911716759204864,-9.725756645202637,-0.1370022445917129
3.8407135009765625,-0.0017356002936139,0.0017187398625537,-1.6141464584507048e-05,0.1710324585437774,-9.746081352233888,-0.1378285139799118
3.8457143306732178,0.0035003875382244,-2.658932498889044e-05,-1.6141464584507048e-05,0.1711165308952331,-9.765344619750977,-0.1182326227426529
3.8507161140441895,0.0017550581833347,-2.658932498889044e-05,-1.6141464584507048e-05,0.1714732348918914,-9.74462890625,-0.09783735871315
3.8557169437408447,9.72897032625042e-06,0.0034640692174434,-1.6141464584507048e-05,0.1712006032466888,-9.78460693359375,-0.0986367166042327
3.8607177734375,9.72897032625042e-06,0.0034640692174434,-1.6141464584507048e-05,0.1710324585437774,-9.746081352233888,-0.1378285139799118
3.8657195568084717,9.72897032625042e-06,0.0034640692174434,0.0017291877884417,0.1709483861923217,-9.726819038391112,-0.1574244201183319
3.870720148086548,0.0017550581833347,-2.658932498889044e-05,-1.6141464584507048e-05,0.1710324585437774,-9.746081352233888,-0.1378285139799118
3.875720977783203,0.0017550581833347,-2.658932498889044e-05,0.0052198460325598,0.1714732348918914,-9.74462890625,-0.09783735871315
3.8807222843170166,-0.0017356002936139,0.0017187398625537,-0.0017614706885069,0.1714732348918914,-9.74462890625,-0.09783735871315
3.88572359085083,9.72897032625042e-06,-2.658932498889044e-05,0.0034745170269161,0.1913920640945434,-9.725030899047852,-0.1170066744089126
3.8907244205474854,-0.0017356002936139,-2.658932498889044e-05,0.0017291877884417,0.1708643138408661,-9.707555770874023,-0.1770203411579132
3.8957250118255615,-0.0017356002936139,0.0034640692174434,-1.6141464584507048e-05,0.1913398206233978,-9.7642822265625,-0.0978104472160339
3.900726795196533,9.72897032625042e-06,0.0017187398625537,0.0034745170269161,0.1708120703697204,-9.746808052062988,-0.1578240990638733
3.9057273864746094,9.72897032625042e-06,-2.658932498889044e-05,-1.6141464584507048e-05,0.1910353600978851,-9.745745658874512,-0.1374019235372543
3.9107279777526855,-0.003480929415673,0.0034640692174434,-1.6141464584507048e-05,0.1709483861923217,-9.726819038391112,-0.1574244201183319
3.915728807449341,9.72897032625042e-06,0.0017187398625537,0.0017291877884417,0.1710847020149231,-9.706830024719238,-0.1570247411727905
3.9207303524017334,9.72897032625042e-06,0.0017187398625537,-1.6141464584507048e-05,0.1515225619077682,-9.70571231842041,-0.117460161447525
3.9257311820983887,9.72897032625042e-06,0.0052093984559178,0.0017291877884417,0.1715254783630371,-9.705377578735352,-0.1170335859060287
3.930732011795044,9.72897032625042e-06,0.0017187398625537,0.0017291877884417,0.1709483861923217,-9.726819038391112,-0.1574244201183319
3.935732364654541,9.72897032625042e-06,-2.658932498889044e-05,-1.6141464584507048e-05,0.1507250815629959,-9.727879524230955,-0.177846610546112
3.9407341480255127,-0.0017356002936139,-2.658932498889044e-05,0.0017291877884417,0.1912557482719421,-9.745019912719728,-0.117406353354454
3.945734739303589,-0.0017356002936139,0.0034640692174434,-0.0017614706885069,0.1719662547111511,-9.703925132751465,-0.0770424157381057
3.950735092163086,9.72897032625042e-06,0.0017187398625537,0.0017291877884417,0.1917487680912017,-9.704315185546877,-0.0966114103794097
3.9557361602783203,9.72897032625042e-06,0.0017187398625537,-1.6141464584507048e-05,0.1712210178375244,-9.686841011047363,-0.1566250771284103
3.960737466812134,9.72897032625042e-06,-2.658932498889044e-05,-1.6141464584507048e-05,0.1914443075656891,-9.685778617858888,-0.1362029016017913
3.965738296508789,0.0017550581833347,0.0052093984559178,-1.6141464584507048e-05,0.1713891625404358,-9.725366592407228,-0.1174332648515701
3.9707388877868652,0.0017550581833347,-2.658932498889044e-05,-1.6141464584507048e-05,0.1510295569896698,-9.746416091918944,-0.138255089521408
3.975740432739258,9.72897032625042e-06,-2.658932498889044e-05,0.0017291877884417,0.1513862460851669,-9.725701332092283,-0.1178598403930664
3.980741024017334,0.0017550581833347,0.0017187398625537,-1.6141464584507048e-05,0.1705916821956634,-9.747533798217772,-0.1778196990489959
3.98574161529541,-0.0017356002936139,0.0034640692174434,0.0017291877884417,0.1918328404426574,-9.723578453063965,-0.0770155042409896
3.9907422065734863,9.72897032625042e-06,-2.658932498889044e-05,0.0017291877884417,0.1713050901889801,-9.706103324890137,-0.137029156088829
3.9957435131073,0.0017550581833347,-2.658932498889044e-05,-1.6141464584507048e-05,0.1914443075656891,-9.685778617858888,-0.1362029016017913
4.000744342803955,9.72897032625042e-06,0.0017187398625537,-0.0017614706885069,0.1915283799171447,-9.705041885375977,-0.1166069954633712
4.005744695663452,-0.0017356002936139,0.0017187398625537,0.0017291877884417,0.1712006032466888,-9.78460693359375,-0.0986367166042327
4.010746240615845,-0.003480929415673,0.0017187398625537,-1.6141464584507048e-05,0.1509773135185241,-9.78566837310791,-0.1190588772296905
4.015746831893921,9.72897032625042e-06,-2.658932498889044e-05,0.0017291877884417,0.1709483861923217,-9.726819038391112,-0.1574244201183319
4.020747184753418,0.0017550581833347,0.0087000569328665,-0.0017614706885069,0.1913079917430877,-9.705767631530762,-0.1366025656461715
4.025747776031494,9.72897032625042e-06,0.0052093984559178,-1.6141464584507048e-05,0.1710847020149231,-9.706830024719238,-0.1570247411727905
4.030749559402466,-0.003480929415673,-2.658932498889044e-05,-1.6141464584507048e-05,0.1714414060115814,-9.686114311218262,-0.1366294920444488
4.035749912261963,9.72897032625042e-06,-2.658932498889044e-05,-1.6141464584507048e-05,0.1713891625404358,-9.725366592407228,-0.1174332648515701
4.04075026512146,-0.003480929415673,-0.0017719186143949,0.0017291877884417,0.1717458665370941,-9.70465087890625,-0.0970380008220672
4.0457518100738525,9.72897032625042e-06,-2.658932498889044e-05,0.0017291877884417,0.1308062672615051,-9.747478485107422,-0.158677265048027
4.05075216293335,9.72897032625042e-06,-2.658932498889044e-05,0.0052198460325598,0.1506728529930114,-9.767131805419922,-0.1586503535509109
4.055752754211426,9.72897032625042e-06,0.0017187398625537,-1.6141464584507048e-05,0.1908149719238281,-9.746472358703612,-0.1573975086212158
4.060753107070923,9.72897032625042e-06,0.0052093984559178,-1.6141464584507048e-05,0.1716095507144928,-9.724639892578123,-0.0974376797676086
4.0657548904418945,-0.0017356002936139,0.0017187398625537,0.0017291877884417,0.1716617941856384,-9.685388565063477,-0.1166339218616485
4.0707550048828125,9.72897032625042e-06,0.0034640692174434,-1.6141464584507048e-05,0.1713050901889801,-9.706103324890137,-0.137029156088829
4.07575535774231,9.72897032625042e-06,0.0052093984559178,-1.6141464584507048e-05,0.1512499451637268,-9.74569034576416,-0.1182595193386077
4.080756902694702,9.72897032625042e-06,0.0017187398625537,0.0017291877884417,0.1711687743663787,-9.726092338562012,-0.1374288350343704
4.085757255554199,-0.0017356002936139,-2.658932498889044e-05,0.0017291877884417,0.1516066342592239,-9.724974632263184,-0.0978642553091049
4.0907580852508545,9.72897032625042e-06,-2.658932498889044e-05,-1.6141464584507048e-05,0.1708643138408661,-9.707555770874023,-0.1770203411579132
4.095757961273193,9.72897032625042e-06,0.0017187398625537,-1.6141464584507048e-05,0.1713891625404358,-9.725366592407228,-0.1174332648515701
4.100759506225586,9.72897032625042e-06,-2.658932498889044e-05,0.0034745170269161,0.1914443075656891,-9.685778617858888,-0.1362029016017913
4.105760097503662,9.72897032625042e-06,-2.658932498889044e-05,-1.6141464584507048e-05,0.1713050901889801,-9.706103324890137,-0.137029156088829
4.11076021194458,9.72897032625042e-06,-2.658932498889044e-05,0.0017291877884417,0.1712210178375244,-9.686841011047363,-0.1566250771284103
4.115760564804077,9.72897032625042e-06,-2.658932498889044e-05,-1.6141464584507048e-05,0.1711687743663787,-9.726092338562012,-0.1374288350343704
4.120761871337891,9.72897032625042e-06,0.0017187398625537,-1.6141464584507048e-05,0.1708961427211761,-9.766070365905762,-0.1382281929254531
4.125762224197388,9.72897032625042e-06,-2.658932498889044e-05,-1.6141464584507048e-05,0.1708961427211761,-9.766070365905762,-0.1382281929254531
4.130762338638306,-0.0017356002936139,0.0052093984559178,0.0034745170269161,0.1713369190692901,-9.764617919921877,-0.0982370376586914
4.135762691497803,9.72897032625042e-06,-2.658932498889044e-05,-0.0052521293982863,0.1911716759204864,-9.725756645202637,-0.1370022445917129
4.140764236450195,-0.0017356002936139,-2.658932498889044e-05,-1.6141464584507048e-05,0.1717458665370941,-9.70465087890625,-0.0970380008220672
4.145764350891113,9.72897032625042e-06,0.0034640692174434,-1.6141464584507048e-05,0.1516588777303695,-9.685723304748535,-0.1170604974031448
4.15076470375061,9.72897032625042e-06,-2.658932498889044e-05,-1.6141464584507048e-05,0.1511658579111099,-9.72642707824707,-0.1378554105758667
4.1557652950286865,9.72897032625042e-06,-2.658932498889044e-05,0.0017291877884417,0.1511136293411255,-9.765679359436035,-0.1186591982841491
4.160766363143921,9.72897032625042e-06,-0.0017719186143949,0.0017291877884417,0.1913920640945434,-9.725030899047852,-0.1170066744089126
4.165766477584839,9.72897032625042e-06,-2.658932498889044e-05,-1.6141464584507048e-05,0.1711687743663787,-9.726092338562012,-0.1374288350343704
4.170766830444336,-0.0052262586541473,0.0017187398625537,0.0017291877884417,0.1713050901889801,-9.706103324890137,-0.137029156088829
4.175768136978149,0.0035003875382244,0.0017187398625537,0.0052198460325598,0.1717458665370941,-9.70465087890625,-0.0970380008220672
4.180768251419067,-0.0017356002936139,-2.658932498889044e-05,-1.6141464584507048e-05,0.1717458665370941,-9.70465087890625,-0.0970380008220672
4.1857686042785645,9.72897032625042e-06,0.0017187398625537,0.0017291877884417,0.1713891625404358,-9.725366592407228,-0.1174332648515701
4.190768718719482,0.0017550581833347,0.0052093984559178,0.0017291877884417,0.1714732348918914,-9.74462890625,-0.09783735871315
4.195770025253296,-0.0052262586541473,-0.0017719186143949,0.0017291877884417,0.1508932411670684,-9.76640510559082,-0.1386547684669494
4.200770139694214,9.72897032625042e-06,-2.658932498889044e-05,0.0017291877884417,0.1509454697370529,-9.727153778076172,-0.1578509956598281
4.205773115158081,9.72897032625042e-06,-2.658932498889044e-05,0.0017291877884417,0.1709483861923217,-9.726819038391112,-0.1574244201183319
4.210775136947632,0.0035003875382244,0.0052093984559178,0.0017291877884417,0.1913079917430877,-9.705767631530762,-0.1366025656461715
4.215775966644287,9.72897032625042e-06,0.0017187398625537,-1.6141464584507048e-05,0.1714414060115814,-9.686114311218262,-0.1366294920444488
4.220776557922363,-0.003480929415673,-2.658932498889044e-05,-1.6141464584507048e-05,0.1513021737337112,-9.706438064575195,-0.1374557316303253
4.2257773876190186,9.72897032625042e-06,-2.658932498889044e-05,-1.6141464584507048e-05,0.1716095507144928,-9.724639892578123,-0.0974376797676086
4.23077917098999,9.72897032625042e-06,0.0034640692174434,0.0034745170269161,0.1712528467178344,-9.745355606079102,-0.1178329437971115
4.2357800006866455,-0.003480929415673,0.0034640692174434,-1.6141464584507048e-05,0.1912557482719421,-9.745019912719728,-0.117406353354454
4.240780830383301,9.72897032625042e-06,-2.658932498889044e-05,0.0034745170269161,0.1713891625404358,-9.725366592407228,-0.1174332648515701
4.245781421661377,9.72897032625042e-06,-2.658932498889044e-05,-1.6141464584507048e-05,0.1915283799171447,-9.705041885375977,-0.1166069954633712
4.250783205032349,-0.0017356002936139,-2.658932498889044e-05,-1.6141464584507048e-05,0.1710847020149231,-9.706830024719238,-0.1570247411727905
4.255783796310425,9.72897032625042e-06,0.0052093984559178,-1.6141464584507048e-05,0.1717458665370941,-9.70465087890625,-0.0970380008220672
4.26078462600708,9.72897032625042e-06,-2.658932498889044e-05,0.0017291877884417,0.1913920640945434,-9.725030899047852,-0.1170066744089126
4.265786170959473,0.0017550581833347,0.0034640692174434,-1.6141464584507048e-05,0.1512499451637268,-9.74569034576416,-0.1182595193386077
4.270786762237549,9.72897032625042e-06,0.0017187398625537,-1.6141464584507048e-05,0.1508091688156128,-9.747142791748049,-0.1582506746053695
4.275787591934204,9.72897032625042e-06,0.0052093984559178,0.0069651752710342,0.1708961427211761,-9.766070365905762,-0.1382281929254531
4.280788421630859,9.72897032625042e-06,-2.658932498889044e-05,-1.6141464584507048e-05,0.1912557482719421,-9.745019912719728,-0.117406353354454
4.285789489746094,9.72897032625042e-06,-2.658932498889044e-05,-1.6141464584507048e-05,0.1513021737337112,-9.706438064575195,-0.1374557316303253
4.290790557861328,9.72897032625042e-06,0.0017187398625537,0.0017291877884417,0.1517429500818252,-9.704985618591309,-0.0974645763635635
4.295790672302246,9.72897032625042e-06,-2.658932498889044e-05,-1.6141464584507048e-05,0.1711687743663787,-9.726092338562012,-0.1374288350343704
4.3007917404174805,0.0017550581833347,0.0017187398625537,-1.6141464584507048e-05,0.1716095507144928,-9.724639892578123,-0.0974376797676086
4.305793285369873,9.72897032625042e-06,-2.658932498889044e-05,0.0017291877884417,0.1910353600978851,-9.745745658874512,-0.1374019235372543
