timestamp,angular_velocity.x,angular_velocity.y,angular_velocity.z,linear_acceleration.x,linear_acceleration.y,linear_acceleration.z
0.21805810928344727,0.0005238993326202,-0.0010259225964546,0.0011458722874522,-0.5982476472854614,0.0990718230605137,9.81924057006836
0.2220461368560791,0.0010579370427876,0.0003685855772346,0.000196355395019,-0.5728347301483154,0.0943628475070011,9.799301147460938
0.22616910934448242,0.0004221923300065,-0.0004782139149028,-0.001512702088803,-0.5474739074707031,0.1039202958345425,9.801276206970217
0.2300550937652588,0.0014820239739492,-0.0016531593864783,-2.4797394871711528e-05,-0.5479413866996765,0.1025052368640911,9.798884391784668
0.23404908180236816,0.0019027115777134,0.0009892762172967,0.0034972256980836,-0.5493463277816772,0.1121758818626415,9.773758888244627
0.23807001113891602,0.0006301624816842,0.0009989690734073,0.0012625781819224,-0.5460125803947449,0.1078800261020672,9.773723602294922
0.24213004112243652,-0.0006483196048066,-0.0006996694719418,0.0007173465564846,-0.5235384106636047,0.1049495935440075,9.78658962249756
0.24618315696716309,-0.0020252196118235,0.0004801301693078,-0.0009811790660023,-0.531187891960144,0.107875205576421,9.774240493774414
0.2500460147857666,-0.0007528754067607,-5.9052428696304526e-05,0.000295131932944,-0.553217887878418,0.1048950850963604,9.799842834472656
0.2540462017059326,-0.0008633511024527,0.0008937239763326,0.0009364513680338,-0.5800436735153198,0.0914607197046292,9.81112289428711
0.2580535411834717,0.0010584434494376,0.0014350484125316,-0.0012843231670558,-0.5795788764953613,0.1009494513273251,9.819295883178713
0.26609158515930176,-0.0002334942109882,5.007701111026121e-05,0.0010484862141311,-0.5579714775085449,0.1187959015369427,9.786126136779783
0.270066499710083,-0.0012851189821958,0.0018427950562909,0.003395639359951,-0.5483722686767578,0.1054668352007877,9.773215293884276
0.27407288551330566,-0.0013945238897576,-0.0015539962332695,0.0014602253213524,-0.5675158500671387,0.0863484740257275,9.774572372436523
0.27806949615478516,-0.0029863477684557,-0.0004796650609932,-0.0004584835842251,-0.5771425366401672,0.092513255774976,9.784553527832031
0.28206968307495117,-0.00139208487235,-0.001016583526507,-0.000128102954477,-0.5675253868103027,0.1134677529335033,9.78847885131836
0.29405760765075684,-0.0014972320059314,0.0009001188445836,-0.0001289788633584,-0.5522533655166626,0.1087642833590519,9.789905548095703
0.2981126308441162,-0.0012876454275101,0.0012144435895606,0.001255189999938,-0.5689845681190491,0.1149728223681461,9.79417896270752
0.30605363845825195,9.74307840806432e-05,-0.0003778983664233,0.0009263879619538,-0.5456494092941284,0.1287543475627911,9.814249038696287
0.31006288528442383,-0.00043390924111,-0.0007059898925945,0.0013566315174102,-0.5455369353294373,0.119775027036668,9.796144485473633
0.3141822814941406,-0.0024567625951021,0.0013198615051805,0.0011475114151835,-0.5503385663032532,0.1006372421979916,9.78939723968506
0.3220534324645996,0.0014810538850724,-0.0020844535902142,0.0006091631948947,-0.5512986183166504,0.102063648402692,9.791337966918944
0.3260645866394043,0.0004135168273933,-0.0006037335842847,0.0024194032885134,-0.5560867190361023,0.1063596680760395,9.792753219604492
0.33405351638793945,-0.0011772392317652,-0.0014392354059964,-0.0005662613548338,-0.5604637265205383,0.1114377230405819,9.835042953491213
0.33806347846984863,-0.0002250632242066,0.0009957962902262,0.0017871060408651,-0.5680860280990601,0.1048306152224552,9.815054893493652
0.3460536003112793,0.0020141112618148,-0.0013384982012212,0.0009273900650441,-0.550835907459259,0.0991626009345066,9.79843807220459
0.35007143020629883,0.001163384411484,0.0002492923231329,0.001685619354248,-0.5627295970916748,0.1008013412356388,9.759021759033203
0.3540835380554199,0.0003138530883006,-0.0001610627805348,-0.0006612222641706,-0.551751971244812,0.1021708995103848,9.768052101135254
0.3580772876739502,0.0011580032296478,-0.0001794161507859,0.0026369509287178,-0.5661600232124329,0.1059102639555943,9.788491249084473
0.36606502532958984,0.0010567352874204,-0.0002725947997532,0.000825694296509,-0.5656652450561523,0.1116295903921139,9.792764663696287
0.37009096145629883,-0.0008587549091316,0.0006826479220762,8.205650374293319e-05,-0.5594496130943298,0.108728200197221,9.79892921447754
0.37807202339172363,0.0016960141947492,0.0011163367889821,-0.0005622887983918,-0.5724127292633057,0.1044341325759899,9.809785842895508
0.3820791244506836,-0.0014927935553714,-0.0003797326644416,0.000606695190072,-0.5589801073074341,0.0934551656246197,9.796079635620115
0.38608694076538086,-0.0007488024421036,0.0002658883458934,-0.0005602547898888,-0.5479556322097778,0.108796924352647,9.790397644042969
0.3901951313018799,-0.0003231912851333,0.002180651994422,-0.0005463412962853,-0.5508097410202026,0.1174812167882931,9.77330493927002
0.39806509017944336,0.00010115281475,-0.0033549319487065,-0.0001496211625635,-0.5622790455818176,0.1221830546855938,9.781444549560549
0.4020881652832031,-0.0003297790535725,-0.0005999124841764,0.0018847589381039,-0.5642688274383545,0.1196734979748738,9.8108491897583
0.4100990295410156,-0.0008603333262726,0.0013309076894074,-0.0009819217957556,-0.5475123524665833,0.1196761131286633,9.812308311462402
0.4140801429748535,-0.0010794735280796,0.0017542347777634,-0.000338936690241,-0.548427939414978,0.1054257005453121,9.7932767868042
0.4181041717529297,0.0002071134804282,0.0007984737749211,-0.001194589305669,-0.5556329488754272,0.1068133711814892,9.79847240447998
0.42208194732666016,-0.0006467350176535,-0.0022945506498217,0.0001752343960106,-0.549862265586853,0.1111859679222118,9.785661697387695
0.42606496810913086,0.0003078544395975,-0.0005966270109638,-0.0001387540251016,-0.5542227625846863,0.1106049567461025,9.80988883972168
0.4300651550292969,0.0011653661495074,-5.0405855290591886e-05,-0.0014099469408392,-0.5465473532676697,0.0819843187928211,9.796489715576172
0.4380760192871094,-0.0004306163173168,0.0001562152610858,-0.0008785845711827,-0.5451501607894897,0.1009947806596768,9.822676658630373
0.4460771083831787,-0.0037302221171557,0.0024930196814239,0.0003988449461758,-0.5766537189483643,0.1197974234819424,9.784737586975098
0.45018601417541504,-0.0019232764607295,0.001324996119365,-0.0001333709806203,-0.574262261390686,0.1174444854259502,9.776657104492188
0.4540712833404541,-0.0006459863507188,0.0014191175578162,0.0028537423349916,-0.5603510141372681,0.1179671287536633,9.770936965942385
0.4580724239349365,-0.0012871633516624,0.0006876859697513,-0.0001334114931523,-0.5541725754737854,0.1155030131340038,9.783316612243652
0.46610355377197266,-0.0001174493663711,0.0016430340474471,0.0004060724750161,-0.5499112606048584,0.0861809477210057,9.81175708770752
0.4701225757598877,-8.455070201307535e-06,0.0023791240528225,0.0025377599522471,-0.5480344295501709,0.0899420827627194,9.834056854248049
0.47410154342651367,-0.0012870614882558,0.0017445595003664,0.0014667026698589,-0.547053337097168,0.0947854518890393,9.81696319580078
0.4780874252319336,-0.0007499620551243,0.000162940545124,-0.0020547416061162,-0.562340259552002,0.0790715217590344,9.799766540527344
0.4822404384613037,0.0008461673278361,5.83317887503651e-05,-0.0022628204897046,-0.5699747800827026,0.0929802879691135,9.793644905090332
0.48607659339904785,-0.001606504083611,0.0008971163770183,0.0003985175862908,-0.5618609189987183,0.102992780506612,9.800348281860352
0.49007248878479004,-0.0004302104644011,0.001437836093828,-0.0010893414728343,-0.5647183656692505,0.1116181015968334,9.796597480773926
0.4980885982513428,-8.039220119826496e-06,-0.000803904607892,0.0006034141406416,-0.5536918044090271,0.108813911676408,9.784224510192873
0.5020813941955566,0.0011589211644604,0.0003544229839462,0.0028456873260438,-0.5536908507347107,0.1150516718626034,9.777613639831545
0.5109524726867676,0.0005256136064417,0.0015371842309832,0.0001912494190037,-0.5608835816383362,0.0987390205264103,9.789876937866213
0.5148754119873047,-0.0001144929410656,0.0019704606384038,-0.001195072196424,-0.5450688004493713,0.1083366572856915,9.78327465057373
0.5188655853271484,9.91833658190444e-05,0.0006879558786749,-0.0002404511906206,-0.5489262938499451,0.114525578916074,9.789017677307127
0.5228655338287354,0.0006305191782303,4.774649278260768e-05,7.735425606369972e-05,-0.5494117736816406,0.1101819872856152,9.798018455505373
0.5308785438537598,0.0019038567552343,-0.0014553269138559,0.0025235158391296,-0.5532227158546448,0.0906000807881367,9.78602409362793
0.5388655662536621,-0.0009674937464296,0.0003643143572844,0.0007137143984436,-0.5608956813812256,0.0910693332552921,9.794121742248535
0.546877384185791,0.0010441911872476,-0.0003757805097848,0.003039576113224,-0.5489439368247986,0.0938890874385845,9.820242881774902
0.5510084629058838,-0.000543079804629,-0.0002800099318847,0.0024126656353473,-0.5675969123840332,0.090549297630788,9.798863410949709
0.5548794269561768,-0.0021380796097218,0.0019583362154662,0.0015706727281212,-0.5767067670822144,0.0919514000415814,9.805021286010742
0.5588724613189697,-0.0003334332141093,0.0003611032443586,0.0023083919659256,-0.5733304023742676,0.1140116155147564,9.79469108581543
0.56294846534729,-0.0011774920858442,0.0004731481021735,7.444014772772784e-05,-0.5670781135559082,0.1045784503221523,9.768515586853027
0.5668842792510986,0.0004157337243668,-0.0017671758541837,0.0007071145810186,-0.5531849265098572,0.1174811571836483,9.771927833557127
0.570906400680542,0.0021155795548111,0.0005768785485997,0.0008304007351398,-0.5594214200973511,0.1060218811035168,9.77898406982422
0.5748803615570068,0.0006255451589822,0.0005670977989211,0.0023123528808355,-0.5671223998069763,0.0967781171202671,9.79648494720459
0.5788793563842773,-0.0018171129049733,-0.0015493379905819,0.0003837416879832,-0.5527872443199158,0.1225761249661457,9.807568550109863
0.5868864059448242,-0.0016026167431846,-5.396894994191836e-05,-0.0008872179314494,-0.579107940196991,0.1015136018395436,9.811705589294434
0.5908854007720947,0.0009489455260336,5.041403346695004e-05,-0.000140359159559,-0.5546982884407043,0.1044625639915478,9.792753219604492
0.5948843955993652,0.0005208816728554,-0.0032546939328312,0.0008047469891607,-0.5561016798019409,0.104036793112756,9.781834602355955
0.5988783836364746,-0.0020293674897402,-0.0005827312124893,-0.0002552419900894,-0.5565778613090515,0.1016393080353748,9.784627914428713
0.6028823852539062,9.76740411715582e-05,0.0016401554457843,0.0014647850766777,-0.555588960647583,0.1074640303850185,9.767593383789062
0.6109044551849365,0.0003045437624678,-0.0004921032814308,0.0022006300278007,-0.566117525100708,0.0983717814087879,9.761835098266602
0.6148824691772461,-0.0012844485463574,-0.0005911501357331,0.0003985911607742,-0.5651441216468811,0.1029878258705151,9.781610488891602
0.6188817024230957,0.0004220040282234,-0.0009980981703847,-0.0030104289762675,-0.5580043196678162,0.1053417995572102,9.790629386901855
0.6228764057159424,0.0009525426430627,-0.0005797994090244,-0.0026910328306257,-0.5603861808776855,0.1076750531792652,9.804927825927734
0.6268835067749023,0.0013924796367064,0.0003781608538702,-0.0023652133531868,-0.5708897709846497,0.1068644002079975,9.79506015777588
0.6308853626251221,-0.0003224079264327,-0.0002620363375172,-0.0022643329575657,-0.5632004737854004,0.1059157624840748,9.76975440979004
0.6348724365234375,-0.0005430476157926,-5.84057415835559e-05,0.000291041098535,-0.5589700937271118,0.1168283745646488,9.79496955871582
0.6388833522796631,0.0001008641265798,-0.0014321091584861,-0.0019454415887594,-0.555553674697876,0.1139961779117596,9.792176246643066
0.6429774761199951,0.0004225281300023,-0.0006876621046103,-0.0019497349858283,-0.5526962876319885,0.1035295128822338,9.772647857666016
0.647045373916626,0.0004188306629657,-0.0009114186977967,0.0004027136601507,-0.5508164763450623,0.1145396679639828,9.779361724853516
0.6508853435516357,-0.0010750582441687,-0.0002710341650526,0.0001763822510838,-0.5378133058547974,0.1178349032998097,9.776013374328612
0.6548724174499512,0.0007485561654902,-0.0004964188556186,0.0012404862791299,-0.5345410704612732,0.1292475163936627,9.778406143188477
0.6588797569274902,0.0005234362906776,0.0022843098267912,9.71173867583272e-05,-0.543182909488678,0.1215434819459927,9.812098503112791
0.6670668125152588,-0.0017119930125772,4.802257171832029e-05,0.0002904646098613,-0.5627723336219788,0.1225374191999447,9.800694465637209
0.6709234714508057,-0.0008561169961467,-0.0003843936428893,0.0009227814152836,-0.5507697463035583,0.1207200288772595,9.787460327148438
0.6749868392944336,-0.0022409912198781,0.0005867792060598,-0.0014133742079138,-0.5393102765083313,0.1053970232605946,9.784045219421388
0.6789007186889648,0.0002093885996146,-0.0017598562408238,-0.0011041131801903,-0.5431979894638062,0.1024053767323506,9.808731079101562
0.6830427646636963,-0.0005413612234406,-0.0027206847444176,0.0005952748470008,-0.5369551181793213,0.1263478845357906,9.806475639343262
0.6869199275970459,-0.000752946420107,-0.001438585226424,-0.0002469895407557,-0.5528184771537781,0.117546245455743,9.84205722808838
0.6948907375335693,-0.0009645980317145,5.33177808392792e-05,-0.0007762699387967,-0.5632827877998352,0.1124711632728588,9.80875301361084
0.7028887271881104,-0.0020312282722443,-0.000715427333489,0.0006918655708432,-0.5518088936805725,0.1173935830593121,9.787498474121094
0.7068908214569092,-1.0758070857264102e-05,-0.0005959484260529,0.001456662081182,-0.539331316947937,0.1144565641880047,9.7916841506958
0.7109017372131348,0.0007368894293904,-0.0002656578144524,-0.0007746270857751,-0.526923418045044,0.1071890741586697,9.812582969665527
0.7148797512054443,0.0016936988104134,0.0009987994562834,0.0009307586587965,-0.541662871837616,0.1140262857079517,9.778424263000488
0.7188808917999268,-0.0003291286411695,0.001005659578368,0.0006122454069554,-0.5603780746459961,0.10779318958521,9.78306484222412
0.7269048690795898,0.0022250171750783,-0.0001706224575173,0.0015670023858547,-0.5451087355613708,0.1105273440480244,9.81351089477539
0.7308948040008545,0.0008454624330624,-0.0024012604262679,0.0003905855119228,-0.5584567785263062,0.120598226785661,9.818352699279783
0.7348794937133789,0.0015946188941597,-0.0007058519404381,-0.000369329471141,-0.576681911945343,0.111124098300935,9.794907569885254
0.738879919052124,0.0005244356580078,0.0014332481659948,-0.0001305998302996,-0.5728395581245422,0.0986702442169201,9.789206504821776
0.7470278739929199,-0.0009660625364631,0.0011118783149868,7.79265537858008e-05,-0.5440996885299683,0.0953942909836781,9.777812004089355
0.750891923904419,-5.149937351234257e-06,0.000269039417617,-0.0014143958687782,-0.5560324192047119,0.1102728247642529,9.765028953552246
0.7548918724060059,-0.000858032668475,0.0022869301028549,-0.0007703299634158,-0.5680201053619385,0.133693575859071,9.77126121520996
0.7628881931304932,0.0011646270286291,-0.0014374405145645,-0.0008895597420632,-0.5479528307914734,0.1225860714912426,9.792170524597168
0.7668993473052979,0.0004145596176385,-0.0019705099985003,6.812391802668596e-05,-0.5402951240539551,0.1115864068269741,9.797857284545898
0.7709090709686279,-0.0001053252635756,-0.0017689856467768,-0.0006789001636207,-0.5441229939460754,0.1035430058836948,9.781682014465332
0.7788991928100586,-0.0010713343508541,-0.0010130726732313,-0.0008872528560459,-0.5718872547149658,0.1048931032419216,9.79631233215332
0.7828881740570068,-0.0004344760382082,-0.000262238230789,-0.0006803045980632,-0.5575123429298401,0.0886654481291782,9.782014846801758
0.7869143486022949,-0.0013824260095134,-7.401077891699956e-05,0.0011452389881014,-0.5565730333328247,0.105271413922311,9.798288345336914
0.7909002304077148,-0.0006510664825327,0.0004659134428948,0.0016686613671481,-0.5580106377601624,0.109648182988168,9.80111598968506
0.7988941669464111,0.0027601947076618,0.001864879974164,-0.0011927424930036,-0.5508508682250977,0.1215241774916661,9.81639289855957
0.8028950691223145,-0.0008564852760173,-0.0002677970624063,-0.000568154733628,-0.5417858958244324,0.1023541465401661,9.824851989746094
0.8109123706817627,0.0009486737544648,0.0024877476971596,0.0023190611973404,-0.546533465385437,0.1172876954078686,9.800703048706056
0.8148882389068604,-0.0008608630159869,0.0020747887901961,0.0005157212726771,-0.5393204092979431,0.1206629276275646,9.791666984558104
0.8228933811187744,-0.0004345577035564,0.0017524877330288,7.787672802805879e-05,-0.5618409514427185,0.1330958455801022,9.79836082458496
0.8268992900848389,0.0018017784459516,0.0002597860875539,0.0007144371047616,-0.5537111163139343,0.1326134353876125,9.801213264465332
0.8309001922607422,-0.0010750648798421,0.0007896432070992,0.0008185394108295,-0.5560868382453918,0.1125723570585262,9.792116165161133
0.8348910808563232,0.0005247931694611,-0.0016507663531228,0.000280131585896,-0.5575169920921326,0.0963557735085499,9.78065586090088
0.8389003276824951,-0.000115634771646,-0.0018706821138039,0.0013382975012063,-0.539806067943573,0.1112110242247593,9.77077293395996
0.8429841995239258,0.0004034394805785,-0.0010145738488063,-3.43816354870795e-05,-0.5393108129501343,0.1084007918834698,9.768314361572266
0.8470273017883301,0.0003108718665316,-0.0014380607753992,-0.0008917031809687,-0.5422019958496094,0.0977563709020626,9.783984184265137
0.8509001731872559,-0.0001149079034803,-0.0008096643723547,0.0011324752122163,-0.5464861989021301,0.1083678975701344,9.765499114990234
0.8548882007598877,-0.000423970981501,-0.000589094008319,0.0002919752150774,-0.5617125630378723,0.1213566809892666,9.755181312561035
0.8588981628417969,-0.0007532290765084,-0.0006915252888575,-0.0007860050536692,-0.5770926475524902,0.1189267039299023,9.757880210876465
0.8629062175750732,-0.0004298638668842,-0.0006953087868168,6.558327004313477e-05,-0.5551636815071106,0.1062925532460224,9.80392360687256
0.8669390678405762,0.0012629990233108,-0.0009140700567513,0.0005934396758675,-0.5585315823554993,0.1033710539340985,9.819584846496582
0.8709170818328857,0.0010563945397734,0.0008965622400864,0.0003084940835833,-0.5604689121246338,0.087141275405885,9.802911758422852
0.8789801597595215,-0.0009669478167779,-5.958793917670841e-05,0.0003885878250002,-0.559892475605011,0.0935005396604549,9.777711868286133
0.8828983306884766,-0.0005303412326611,-0.0016505912644788,-0.0008946876041591,-0.5660936236381531,0.0887201651930821,9.782017707824709
0.8869092464447021,-0.0024541893508285,-0.00048795028124,0.0003825295716524,-0.561326265335083,0.1068703383207333,9.775911331176758
0.895043134689331,-0.003626293502748,-0.0002683540224097,-0.0003639548085629,-0.561333954334259,0.1159589141607296,9.782121658325195
0.8988971710205078,-0.0008526733145117,-0.001459096558392,0.0002697338350117,-0.5531769394874573,0.1063693091273319,9.778157234191896
0.9029030799865723,-0.0002273546706419,-0.0001728083007037,0.0027269786223769,-0.5685567855834961,0.1029751077294361,9.807191848754885
0.910912275314331,9.336002403870224e-05,0.0023885655682533,-2.8382521122694307e-05,-0.5637739896774292,0.1039476841688168,9.793451309204102
0.9189083576202393,0.0010565716074779,-0.0006923926994204,-0.0002509145997464,-0.5580087900161743,0.1278738975524914,9.794032096862791
0.9228982925415039,0.001159518607892,-0.000791538041085,-0.0017400532960891,-0.5522512793540955,0.115958020091058,9.784048080444336
0.9269092082977295,0.0025578383356332,-0.0007057135226204,-0.0014124340377748,-0.5465806126594543,0.1069157049059879,9.790985107421877
0.9309272766113281,-0.001066570635885,-0.0003618757182266,-0.0008983104489743,-0.5513026714324951,0.104906126856805,9.79355239868164
0.9348981380462646,-0.0012838981347158,0.0014440388185903,-0.0012058969587087,-0.5426760315895081,0.1226632148027432,9.783567428588867
0.938906192779541,0.0004155480419285,0.0001615944347577,-0.0013144528493285,-0.5480262637138367,0.1200910136103642,9.827707290649414
0.9429023265838623,0.0002078696561511,0.0013236850500106,0.0009232750162482,-0.550436794757843,0.0965564399957669,9.84047508239746
0.9470372200012207,-0.0009663761011324,0.0016431823605671,0.0007122885435819,-0.5518547296524048,0.1119442135095608,9.825322151184082
0.9509103298187256,0.0009482990717515,0.0027074893005192,0.0007213102653622,-0.5585485696792603,0.1023776084184658,9.826692581176758
0.9548983573913574,-0.0002055180084425,0.0004826596705242,-0.0010013724677264,-0.5571572780609131,0.1001219898462307,9.800651550292969
0.958906888961792,-0.0005376372719183,0.0016506273532286,-0.0012031560763716,-0.5460548996925354,0.1034996435046207,9.786799430847168
0.9629065990447998,0.0007321264129132,0.0018560473108664,0.0007119355723261,-0.5431818962097168,0.108290806412698,9.784456253051758
0.9669287204742432,0.001713307457976,0.0012324171839281,-0.000559895299375,-0.5503373146057129,0.113099366426469,9.797343254089355
0.9709646701812744,-0.0009659162024036,-0.0006932592950761,-0.0003644665703177,-0.5670890808105469,0.100638732314111,9.785805702209473
0.9749157428741455,-0.0014939224347472,-0.0006885102484375,-0.0014342307113111,-0.5599639415740967,0.0924370214343082,9.79619312286377
0.9789125919342041,-0.0012852306244894,-0.0006974805146455,0.0001673949882388,-0.5589932799339294,0.1096453517675411,9.803444862365724
0.9829127788543701,8.681476901983842e-05,-0.0011148855555802,-3.3985823392867906e-05,-0.5618743300437927,0.1153554543852818,9.805343627929688
0.9869186878204346,9.915361442836002e-05,-0.0002733846777118,6.342120468616488e-05,-0.5594761371612549,0.1057735010981571,9.815741539001465
0.9909188747406006,0.0010505962418392,0.0003649216669145,0.0015593441203236,-0.5748111009597778,0.0924102440476429,9.809507369995115
0.9949386119842529,-0.0010738334385678,0.0007936232723295,0.0001751091331243,-0.5657052993774414,0.1086701452732098,9.808157920837402
0.9989147186279297,-0.0018163850763812,-0.0005839043296873,-0.0012190574780106,-0.5671288371086121,0.0996138155460369,9.79765510559082
1.0029067993164062,-0.0009691978339105,-0.0006968577508814,0.0016627763397991,-0.5699899792671204,0.1069438457489025,9.76919174194336
1.0109295845031738,0.0021190699189901,0.0010113775497302,0.000397918280214,-0.5383967161178589,0.1092919930815708,9.766371726989746
1.0149106979370117,0.0014803321100771,0.0001544307451695,0.0004917634651064,-0.5498813390731812,0.1068689227104199,9.78536605834961
1.022911787033081,-0.0003340487892273,0.0015392708592116,0.000290485098958,-0.554699718952179,0.0914163589477551,9.822948455810549
1.0269176959991455,-0.001605657977052,0.0006856895633973,0.0007041683420538,-0.5656946897506714,0.1020183041691792,9.799558639526367
1.0349106788635254,0.0002029234456131,0.0006854580715298,0.000706588383764,-0.5580271482467651,0.1078106835484516,9.78773021697998
1.0389187335968018,-0.0006373556097969,0.0001433974393876,0.0015604686923325,-0.5502628684043884,0.104108512401582,9.772515296936035
1.0429067611694336,-1.837375748436898e-05,-0.0001614650536794,0.0008067595772445,-0.5426927804946899,0.0978869348764431,9.760658264160156
1.0470538139343262,0.0007337097194977,-0.0008071225020103,0.0013376311399042,-0.5537126064300537,0.098285883665086,9.77818489074707
1.0509905815124512,0.0013783576432615,-0.0001748848007991,0.0020862151868641,-0.5637903213500977,0.1059024110436451,9.78531551361084
1.0549108982086182,0.0012661577202379,0.000254984566709,0.0023003304377198,-0.5776479840278625,0.1097350865602505,9.790547370910645
1.0629150867462158,-0.0007521428633481,-0.0001631260674912,-0.0002381466329097,-0.570969820022583,0.121154159307481,9.802980422973633
1.0669362545013428,0.0005326521932147,0.0009083548793569,-0.0033365045674145,-0.571436882019043,0.1216474547982227,9.795835494995115
1.0709362030029297,0.0008424936095252,0.0006912724347785,-0.000253826379776,-0.5546923875808716,0.1126194149255764,9.785365104675291
1.0749192237854004,-0.000118162977742,0.0009952324908226,0.0026215463876724,-0.5551314353942871,0.1059434860944759,9.77724838256836
1.0789272785186768,-0.0002210885286331,0.0009999145986512,0.0012379619292914,-0.5641734600067139,0.1112523078918469,9.762015342712402
1.0830531120300293,0.0012666017282754,0.0004709501808974,0.0011312928982079,-0.5565831065177917,0.1255429387092602,9.780653953552246
1.0869262218475342,0.0012623086804524,-0.0014467150904238,0.0016529578715562,-0.5561215877532959,0.1179012060165417,9.775846481323242
1.0950560569763184,0.0015897296834737,-0.0014508370077237,0.0009026937186717,-0.5513933897018433,0.1033729314804089,9.815265655517578
1.0989151000976562,0.0013773262035101,-0.0004770176310557,-0.0005792621523141,-0.5575662851333618,0.1058602854609501,9.79860496520996
1.1029200553894043,0.0022244695574045,-0.0006966086803004,0.0001678876578807,-0.5714021325111389,0.1030524969100964,9.78006076812744
1.1109440326690674,-0.001501164631918,-0.0009091770043596,0.0014358973130583,-0.5599464178085327,0.1092653274536144,9.782938957214355
1.1150362491607666,-0.0018195402808487,-0.0001680929271969,0.001124036964029,-0.5570486783981323,0.0992912054061901,9.770060539245604
1.1229231357574463,0.0006326033035293,0.0011037600925192,0.0005922452546656,-0.5671482682228088,0.0906485468149197,9.780389785766602
1.1269261837005615,0.0012637409381568,-5.962915020063503e-05,0.0013399748131632,-0.5575917363166809,0.0775803551077854,9.81174659729004
1.1309270858764648,0.000630987691693,0.0010099799837917,-0.000251829624176,-0.546591579914093,0.0966976135969174,9.811867713928224
1.1389241218566895,0.003074679756537,-0.0003783182182814,0.0005972180515527,-0.5427584052085876,0.1096417382359516,9.80860710144043
1.1429152488708496,0.0021238939370959,-0.000694484799169,-4.551140591502181e-05,-0.5427343845367432,0.1020194515585911,9.798645973205566
1.1470592021942139,0.0016945898532867,-0.0019712350331246,5.572987720370317e-05,-0.5527756810188293,0.1183491051197064,9.786750793457031
1.1509270668029785,0.0012677185004577,-0.0007009978871792,0.0009120283648371,-0.551384687423706,0.1091308519244206,9.818076133728027
1.1549582481384277,0.0009467290365137,0.0001546518906252,0.0002759275957942,-0.5465663075447083,0.1034843549132359,9.795268058776855
1.158921241760254,-0.0005415757768787,0.000152901848196,0.0012334655039012,-0.5541746616363525,0.1083929389715206,9.766275405883787
1.1669502258300781,-0.0016127811977639,0.001000634394586,0.0019855238497257,-0.5628494024276733,0.124012701213361,9.808636665344238
1.1709423065185547,-0.0005476352525874,-0.0004996861098334,0.0041016628965735,-0.5671705007553101,0.1359196752309811,9.814827919006348
1.1750223636627197,-0.0013939923373982,0.0005773321609012,0.0008020000532269,-0.553281843662262,0.1263395100831997,9.811944007873535
1.1789271831512451,-0.0004279049462638,0.0008024692069739,0.0004961965605616,-0.552349865436554,0.1044344753026974,9.78765869140625
1.1829442977905273,-0.0019234555074945,-5.369333666749308e-05,-0.0007951320149004,-0.5565325617790222,0.120405673980714,9.753946304321287
1.19093918800354,0.0020116155501455,0.0008980934508144,0.0007058409973978,-0.5575396418571472,0.1035652905702602,9.776206016540527
1.1949272155761719,0.0012726070126518,-0.0011143072042614,-0.0002569751814007,-0.566619336605072,0.1054803580045712,9.777077674865724
1.1989262104034424,-0.0015002784784883,-0.0008011711761355,0.0001631299965083,-0.5580348372459412,0.110672987997533,9.791908264160156
1.2029213905334473,-0.0017120765987783,0.0004671360948123,0.0020818840712308,-0.5551995038986206,0.1024967655539524,9.803747177124023
1.2069323062896729,-0.002670336747542,0.0008948291069827,0.0021899105049669,-0.5666750073432922,0.1043116524815571,9.830314636230469
1.2109463214874268,-0.0003331916523166,-0.0003835831303149,0.0018670917488634,-0.5638540983200073,0.0928380861878407,9.823182106018066
1.218921184539795,-0.0013922539073973,-0.0004800865135621,-0.0003696726635098,-0.5556365251541138,0.1207757592201244,9.77817440032959
1.222926378250122,-0.0004329181392677,5.373571184463792e-05,-0.0005790130235254,-0.5551437139511108,0.1356373131275189,9.770638465881348
1.2309343814849854,-0.0010732655646279,0.0005796138430014,0.0005917269736528,-0.5642574429512024,0.1307956874370587,9.786747932434082
1.2389302253723145,-0.0020296990405768,0.0005910657346248,-0.0008968957699835,-0.5546782612800598,0.1260606646537792,9.785330772399902
1.2469322681427002,-0.0019232704071328,-0.0003722330438904,0.000587208662182,-0.5446290373802185,0.1054835170507443,9.78332233428955
1.2549211978912354,-0.0019304355373606,0.0006752791232429,0.0028266813606023,-0.5695379972457886,0.1097040176391613,9.79661464691162
1.258929967880249,-0.0004386676591821,0.0016398688312619,0.001660956069827,-0.5614016652107239,0.1054344326257717,9.785192489624023
1.262929916381836,-0.0003308927698526,0.0007949015707708,0.0015642065554857,-0.5590784549713135,0.1063959151506435,9.780057907104492
1.266948938369751,0.0003102520131506,0.0019588933791965,7.025431841611838e-05,-0.5389415621757507,0.1045676693320286,9.770984649658203
1.2709500789642334,0.0008424390689469,0.0007882069330662,0.0008083106949925,-0.5365164875984192,0.1016624048352253,9.777106285095217
1.274954080581665,9.797920938581228e-05,0.001540194847621,6.459886208176594e-05,-0.5480166077613831,0.0948843583464634,9.793696403503418
1.2789499759674072,0.0009529553353786,0.0003776137018576,-0.0022811628878116,-0.5460929274559021,0.1010872572660458,9.796119689941406
1.2830290794372559,0.0005253077251836,0.0008037494844757,-0.0018533789552748,-0.5422624945640564,0.1030463725328457,9.787089347839355
1.286945104598999,0.0008451963658444,0.0024003481958061,-0.0005698692984879,-0.5455968379974365,0.1093131005764019,9.77902603149414
1.2909419536590576,0.0005198812577873,0.0010003634961321,0.0013377359136939,-0.5556282997131348,0.1159809529781353,9.784733772277832
1.3069500923156738,-0.0017117217648774,0.0005729583790525,-0.0001555797643959,-0.5484573841094971,0.1260318458080303,9.786245346069336
1.31095290184021,-0.0018192501738667,-4.870360135100788e-05,-0.0004766942001879,-0.5575671195983887,0.115992456674577,9.778572082519531
1.3150629997253418,-0.0011773132719099,-0.0010039844783023,-0.0018658624030649,-0.543179452419281,0.1136914640665066,9.758624076843262
1.31892991065979,-0.0009822971187531,-0.001848061569035,-0.0021817106753587,-0.5426092743873596,0.1174966245889675,9.75759220123291
1.322930097579956,0.0013742271112278,0.0005813093157485,-0.0007916390895843,-0.5551707744598389,0.1227162033319485,9.772889137268066
1.330941915512085,0.0019085928797721,0.0010131575400009,-0.0007886397652328,-0.5566205382347107,0.1025882661342632,9.783717155456545
1.3349299430847168,0.0011561253340914,0.0009045692859217,0.0004898817278444,-0.5594416260719299,0.0949569195508968,9.777934074401855
1.338942050933838,0.0011640143347904,0.0007994379848241,-0.0007905764505267,-0.5647884607315063,0.0939078554511082,9.79739761352539
1.3429300785064697,-0.0008472223416902,-0.000156375899678,-0.0003746133297681,-0.5604429841041565,0.1044524833560001,9.790413856506348
1.3478639125823975,0.0007911232532933,0.0001686110772425,0.0019552572630345,-0.5658678412437439,0.1144830733537685,9.793294906616213
1.3517510890960693,0.0022196171339601,0.0013102442026138,0.0037903022021055,-0.5566071271896362,0.1164741516113293,9.77994155883789
1.3557500839233398,-0.0007542226812802,0.0014312050770968,0.0007019354961812,-0.5446765422821045,0.1025653779506695,9.78419017791748
1.3597450256347656,0.0011568485060706,0.0001491174916736,0.0018655392341315,-0.5389127731323242,0.1078314334154141,9.78754425048828
1.367746353149414,0.0005189835792407,0.0015392355853691,0.0001709163188934,-0.550406813621521,0.1083628833293926,9.777073860168455
1.3717594146728516,-0.0007522423402406,-0.000791436410509,-0.0010126698762178,-0.5547137260437012,0.093006879091264,9.788396835327148
1.375772476196289,-0.0007570018060505,0.0003705116687342,0.000148391816765,-0.5570359230041504,0.0991968512535107,9.781143188476562
1.383763074874878,0.0007330865482799,0.001320608658716,0.001657779328525,-0.567638099193573,0.1073255240917217,9.794132232666016
1.3877770900726318,-0.0003298812080174,-0.0007000102777965,0.0012214221060276,-0.5480095744132996,0.1025870665907871,9.784638404846191
1.3917484283447266,-0.0012869350612163,-0.0002754035813268,0.0013286108151078,-0.5394036173820496,0.1112067699432385,9.788029670715332
1.3997504711151123,0.0002044398861471,-0.0010106096742674,-0.0008003073744475,-0.5470818877220154,0.1086870133876812,9.810790061950684
1.4077503681182861,-0.0010739730205386,0.000800943467766,-0.0011113951914012,-0.5566107630729675,0.1102600768208515,9.781785011291504
1.4157373905181885,0.000742973468732,-0.0017528079915791,-0.0012293653562664,-0.5642783045768738,0.1126351654529583,9.786534309387209
1.4237513542175293,-0.0006492234533652,4.69057122245432e-05,0.0009045428596436,-0.5461390614509583,0.1082050800323498,9.81171417236328
1.4317634105682373,-2.0167644834145904e-05,-0.0004790280945599,-0.001429846510291,-0.5585041642189026,0.1011602729558956,9.764689445495604
1.4397563934326172,-0.0006492123939096,-0.0027215313166379,-0.0007060202769935,-0.5528140664100647,0.1174943149089825,9.768051147460938
1.443737506866455,0.0003096930449828,-5.157649866305298e-05,-0.0004773954860866,-0.545617401599884,0.1160289794206631,9.778945922851562
1.4478623867034912,0.0007365628844127,-0.0022867927327752,-0.0007010945118963,-0.5508836507797241,0.0982643291354191,9.788375854492188
1.451763391494751,0.0034000240266323,-0.0011174192186444,-5.333451554179178e-05,-0.5528174638748169,0.1135240495204937,9.799371719360352
1.4557373523712158,0.0004163019475527,4.793948028236638e-05,0.0008053793571889,-0.5432268381118774,0.1163366660475743,9.804489135742188
1.4597434997558594,0.0008440685924142,-0.0012322370894253,0.0020718430168926,-0.5388152003288269,0.115516707301141,9.761709213256836
1.4637770652770996,0.0003099129535257,0.0008961770217865,0.0011349529959261,-0.5531738996505737,0.1245809048414242,9.768329620361328
1.4678902626037598,-0.0001162604021374,0.0016451148549094,-4.172977060079595e-05,-0.5560771822929382,0.1207548156380665,9.769283294677734
1.4717772006988525,-0.0004312702803872,-0.0016488848486915,-0.000906454399228,-0.5608483552932739,0.1274109035730374,9.783075332641602
1.475771188735962,-0.0009671573643572,0.0002638485457282,-4.799198359251026e-05,-0.5475022196769714,0.105312228202821,9.800100326538086
1.4797532558441162,0.0003079677408095,-6.381425191648285e-05,0.0015490083023905,-0.5518355369567871,0.0856540501117718,9.8114013671875
1.4877402782440186,-0.0011844730470329,-0.0006947722285985,0.0001628939062356,-0.5800259113311768,0.1086312159895908,9.792559623718262
1.4917643070220947,0.0010605913121253,5.066985613666487e-05,0.0010122978128492,-0.564244270324707,0.1187919080257427,9.794839859008787
1.4957661628723145,-0.0016043497016653,-0.0014381458749994,-0.0003748075105249,-0.5618842244148254,0.1229340881109249,9.816295623779297
1.5037531852722168,-1.0341362212784588e-05,-0.0015479954890906,0.0005829627625644,-0.5594726800918579,0.122044548392297,9.803466796875
1.5077722072601318,0.0007382874609902,-0.0009002479491755,-0.0012218980118632,-0.5570510625839233,0.1192623078823101,9.78494358062744
1.5118052959442139,0.0013744585448876,-0.0010080651845782,-0.0017541544511914,-0.5479447245597839,0.1169438585639011,9.767372131347656
1.5158863067626953,0.0010578872170299,0.001130191842094,-0.0020711030811071,-0.5541422367095947,0.0997573584318173,9.771456718444824
1.5197412967681885,0.0015954002737998,-0.0001498479978181,-0.0014319368638098,-0.5484128594398499,0.1115080714225781,9.793882369995115
1.5237643718719482,-0.0012810477055609,4.972532042302189e-05,-0.0001591653563082,-0.5584951043128967,0.1139494329690945,9.799158096313477
1.5277633666992188,-0.0027760227676481,0.0001565466809552,-5.308724939823153e-05,-0.5537794828414917,0.1070971190929424,9.832392692565918
1.531752347946167,-0.002565283793956,0.0002647581277415,-0.000156165100634,-0.5585698485374451,0.1137672662734997,9.838570594787598
1.5357532501220703,-0.0019265592563897,0.0005887963925488,-0.0006888466887176,-0.5676455497741699,0.1119385212659847,9.818156242370604
1.539823293685913,-0.0003282811958342,-0.0023953560739755,-0.0002738595940172,-0.5580183863639832,0.1096772998571407,9.78868007659912
1.543764352798462,0.0010538855567574,-0.0006995245348662,4.9080699682235806e-05,-0.5599502325057983,0.0996835529804241,9.78294849395752
1.5478732585906982,-0.0025642090477049,0.0006852668011561,0.0010129800066351,-0.5455566644668579,0.0987470448017132,9.772022247314451
1.5517852306365967,-0.0007561293314211,-0.0005905972211621,0.0011196359992027,-0.5335878133773804,0.1059523820877087,9.76687240600586
1.5558643341064453,0.0007378845475614,-0.0015396252274513,-0.0012269965372979,-0.5450575947761536,0.1007283851504337,9.757311820983888
1.5598108768463135,0.0001990710734389,5.8017118135467e-05,-0.0014306646771728,-0.5661540031433105,0.0972744449973118,9.78480625152588
1.5637776851654053,-0.0005391022423282,-0.0009094787528738,0.0009042569436132,-0.5575367212295532,0.1106267794966709,9.792486190795898
1.5677895545959473,0.0002032168413279,-0.0004772075917571,-0.0005846302956342,-0.5561521053314209,0.1052573025226605,9.817166328430176
1.5717747211456299,-0.0009674035827629,-0.0010132096940651,4.9822963774204376e-05,-0.5580874681472778,0.0851045101881039,9.829416275024414
1.575765609741211,-0.0005404347903095,-0.0016581267118453,0.0011113607324659,-0.5566359162330627,0.0813484787940991,9.81269359588623
1.579777479171753,0.001159323612228,-0.0022949439007788,0.0012116231955587,-0.5808901190757751,0.079509235918523,9.789958953857422
1.5837714672088623,0.0004159576783422,-0.0002685869403649,0.0004801703616976,-0.5637317895889282,0.0983154475688946,9.760161399841309
1.587761640548706,0.001375374617055,-0.000261604116531,-0.0015391120687127,-0.5541590452194214,0.0925636142492306,9.767204284667969
1.5917725563049316,0.0014811409637331,-0.0013327379710972,-0.0003743139095604,-0.5618279576301575,0.1073750555515301,9.76821994781494
1.5957462787628174,0.0009492096723988,-0.0002684245118871,0.0002654432319104,-0.5551485419273376,0.1140413507819187,9.78201675415039
1.5997602939605713,-0.0010637729428708,-0.0007022701902315,0.0018592169508337,-0.5575706958770752,0.1014603674411785,9.803321838378906
1.603759527206421,-0.0015008301706984,-0.0004836828738916,0.0004771896637976,-0.5743158459663391,0.1091189160943043,9.808109283447266
1.6077735424041748,-0.0011770643759518,0.0016450507100671,0.0001674955710768,-0.5681268572807312,0.1114512383937847,9.817168235778809
1.6118476390838623,-0.0020262198522686,4.544013063423339e-05,0.0002630776725709,-0.5590077638626099,0.1239199787378323,9.813891410827637
1.615769624710083,-0.0013956571929156,-0.0002571247168816,-0.0010157218202948,-0.5541900992393494,0.1106371134519589,9.781442642211914
1.6197454929351807,-0.0008625846821814,0.0017499607056379,0.0008053202182054,-0.5565527081489563,0.1093217581510555,9.763958930969238
1.62376070022583,0.0002027810260187,-0.0010189529275521,0.0013272892683744,-0.5651721358299255,0.1088072508573544,9.77202320098877
1.6277508735656738,-0.0013894602889195,0.0003692673635669,5.703140050172801e-05,-0.5522505640983582,0.102701283991338,9.746362686157228
1.6317706108093262,-0.0013941067736595,0.0003695817431434,0.0001569236628711,-0.5465195178985596,0.0935055911540997,9.773853302001951
1.6358387470245361,-0.0021415539085865,-0.0009164997609332,0.0021746954880654,-0.5623498558998108,0.0876541733741772,9.794722557067873
1.639770746231079,-0.0004347367503214,-0.000798379885964,0.0002610315568745,-0.5570971965789795,0.0823889151215565,9.78994846343994
1.6437697410583496,0.0003076015564147,0.0019608994480222,0.0012318734079599,-0.5656925439834595,0.0828695595264446,9.797070503234863
1.6478888988494873,0.0011570216156542,0.000252537371125,0.0027154609560966,-0.5585545301437378,0.0823235437273991,9.807544708251951
1.6517574787139893,-0.0005434284103102,0.000580717343837,0.0004773219116032,-0.5446372032165527,0.0948013365268719,9.801923751831056
1.6557586193084717,-0.0009692062158137,0.0016509175766259,0.0013271467760205,-0.5612255334854126,0.0921706035733234,9.763925552368164
1.6597809791564941,-0.0005441323155537,-6.416899850591994e-05,0.001860705204308,-0.5723689794540405,0.1006487980484974,9.777653694152832
1.6639072895050049,0.0007333941757678,-0.0018729618750512,0.0013208081945776,-0.573352038860321,0.1010945737361919,9.784300804138184
1.6678991317749023,-0.0005424582050181,-0.0006973583949729,0.0005792444571852,-0.5498757362365723,0.0925106257200253,9.780511856079102
1.6717979907989502,-9.408831829205155e-06,-0.0016518522752448,0.0002570934593677,-0.5541962385177612,0.1010842621326458,9.788145065307615
1.6757609844207764,0.0007296919357031,0.0002448514278512,0.0040979254990816,-0.5728872418403625,0.1005237698555004,9.805679321289062
1.6797699928283691,0.0013694382505491,-0.0014481079997494,0.0024970495142042,-0.5595160722732544,0.1139054596424114,9.810511589050291
1.683763027191162,0.001056959037669,-0.0004789840313605,-0.0012229927815496,-0.5499517917633057,0.1085817441344273,9.826194763183594
1.6877751350402832,0.0013748288620263,-0.000359861558536,-0.0014341040514409,-0.5556723475456238,0.1086526960134518,9.806715965270996
1.6918320655822754,0.0011598240816965,-0.0023953134659677,-0.0001683193258941,-0.550903856754303,0.1095764115452778,9.815747261047363
1.6957781314849854,-0.0010766494087874,-0.0004763796168845,0.0004754024557769,-0.5341248512268066,0.1111269146204006,9.790114402770996
1.699779987335205,-0.0009642012300901,-0.0026025776751339,-0.0017681894823908,-0.5441639423370361,0.1053714975714695,9.79575252532959
1.703766107559204,0.0005272772395983,-0.0004784139164257,-0.0013360860757529,-0.5494509339332581,0.0986646115779888,9.792922973632812
1.7077550888061523,-0.0014998501865193,0.000368835782865,0.000370277557522,-0.5484910011291504,0.1029236167669308,9.807148933410645
1.7117912769317627,0.0012650957796722,0.0001532224123366,0.0005800602957606,-0.568101167678833,0.0995874479413044,9.803339004516602
1.7159132957458496,-0.0027787173166871,-0.0018696659244596,0.0009962366893887,-0.5786619186401367,0.1191534325480473,9.812895774841309
1.719778060913086,-0.0029890511650592,-0.0005854509072378,-0.0004889275878667,-0.5738575458526611,0.1110477745533001,9.807635307312012
1.7237672805786133,-0.0005397433415055,0.0005569629138335,0.0018668905831873,-0.5575886964797974,0.12056863307953,9.798179626464844
1.7277681827545166,0.0007340325973927,0.0019715304952114,-0.0005734022706747,-0.5437472462654114,0.1129806637763989,9.811488151550291
1.7317781448364258,0.0007347275968641,-5.667694495059548e-05,0.0001567029394209,-0.5283677577972412,0.10491542518139,9.78773593902588
1.735767126083374,-0.0003283831174485,0.0003612763248384,0.0020692278631031,-0.5488845109939575,0.1120936051011097,9.782037734985352
1.7437551021575928,0.0003105330979451,-0.0013255428057163,-0.0009080590680241,-0.5737965106964111,0.117365211248399,9.784427642822266
1.747894048690796,-0.0013824858469888,-0.001855686539784,-0.0019858549349009,-0.5843762755393982,0.1092064678668987,9.792308807373049
1.7517890930175781,-0.0018210742855444,-0.0004924201639369,0.0004536663182079,-0.5657659769058228,0.1082410365343106,9.818561553955078
1.7557740211486816,-0.0029891207814216,0.0021788713056594,0.0001615062355995,-0.5532665252685547,0.1144627928733837,9.793902397155762
1.7597689628601074,-0.0016062514623627,-0.0006993819260969,0.0002559782005846,-0.5523362159729004,0.1086864322423947,9.80481243133545
1.7639219760894775,-0.0004370992537587,4.3804815504700135e-05,0.0015381379052996,-0.5379531383514404,0.0881929099559795,9.785260200500488
1.7677726745605469,-0.0016042243223637,-0.0006808851612731,-0.0018706894479691,-0.5389357805252075,0.0929644107818615,9.783350944519045
1.7717878818511963,-0.000967628089711,-0.0014380244538187,0.0004639588296413,-0.5374446511268616,0.0976331159472477,9.799978256225586
1.7757899761199951,-0.000756965833716,0.000995461596176,0.0010117013007402,-0.5665716528892517,0.1078158244490635,9.787267684936523
1.7797660827636719,-0.0004326763155404,0.0004826876102015,-0.0016526589170098,-0.577684223651886,0.0967971235513699,9.787603378295898
1.783782958984375,0.0015885531902313,0.0004823379567824,-0.0012242500670254,-0.556191086769104,0.1000257134437573,9.812332153320312
1.7877869606018066,0.0011647056089714,0.0016552077140659,-0.0019645453430712,-0.5499557852745056,0.1047999113798153,9.814757347106934
1.7917909622192383,-0.0001153929188149,0.0008025173447094,-5.427282303571711e-05,-0.5686171650886536,0.1077194660902035,9.817147254943848
1.795759916305542,9.62424383033067e-05,0.0010015107691287,0.0006996248848736,-0.5633945465087891,0.1028899252414715,9.80808162689209
1.7997872829437256,-0.0006483994657173,0.0009022071026265,0.0003684763796627,-0.5633160471916199,0.0991626828908932,9.794782638549805
1.8037710189819336,0.002862719586119,0.0003685012925416,0.0003730286844074,-0.5432147979736328,0.1039941534399998,9.780563354492188
1.8077600002288818,0.0028629412408918,0.0023817648179829,0.0024068704806268,-0.55037921667099,0.1135226935148251,9.789632797241213
1.811784029006958,-0.0010702719446271,0.0001638028334127,-0.0011224830523133,-0.5628364682197571,0.1035078018903744,9.783382415771484
1.8157598972320557,0.0006288834847509,0.000260287662968,0.0009002820588648,-0.5613919496536255,0.1116227805614483,9.786272048950195
1.8197600841522217,0.0007355818524956,0.0008958836551755,0.0012260302901268,-0.5561684966087341,0.1134485900402081,9.807162284851074
1.8237769603729248,-0.0009651992586441,0.0002684664214029,-0.0010105548426508,-0.5637581944465637,0.1101014465093624,9.82001495361328
1.8277828693389893,0.0006289302837103,-0.0011198060819879,-0.0003820266574621,-0.5499729514122009,0.1033726483583462,9.814273834228516
1.8317899703979492,-0.0005427583237178,0.0011100396513938,0.0012223236262798,-0.5351298451423645,0.1139268279075634,9.809134483337402
1.8358919620513916,-0.0004322743043303,0.0023930445313453,-0.0001593488268554,-0.5528042316436768,0.1158935874700558,9.791509628295898
1.839768886566162,9.85867591225542e-05,-0.0013286417815834,-0.000705640297383,-0.558032214641571,0.1064135879278194,9.773903846740724
1.8437719345092773,0.0011584849562495,0.0014268460217863,0.0013326681219041,-0.5570600628852844,0.1212715357542049,9.772061347961426
1.8478920459747314,0.0019035856239497,0.0017477381043136,0.0015498679131269,-0.5623406767845154,0.0987545102834713,9.781947135925291
1.8517708778381348,-0.0002232346741948,-5.6985678384080495e-05,0.0002630492672324,-0.5527722239494324,0.0858744829893124,9.77426815032959
1.8557820320129395,0.0006262290407903,-0.0006689080037176,-0.000820439774543,-0.5537233948707581,0.0908973664045345,9.797052383422852
1.859821081161499,0.0005234717391431,0.0007957504130899,-0.0003737732768058,-0.557589590549469,0.1177920997142803,9.798182487487791
1.8637683391571045,-7.635491783730686e-06,-0.0006876810221001,0.000788346864283,-0.5618785619735718,0.1240523979067814,9.787333488464355
1.8677973747253418,-9.22265462577343e-06,-0.0014381948858499,-0.000171813648194,-0.5585284233093262,0.1101943850517284,9.785792350769045
1.8717994689941406,0.0010560578666627,-0.0022930076811462,0.0005690651014447,-0.5460959672927856,0.1044147834181797,9.798138618469238
1.8757734298706055,0.0015886737965047,-0.0012239585630595,-0.0004881899803876,-0.5317860245704651,0.126811131834985,9.814878463745115
1.8797962665557861,-7.977854693308473e-06,-0.0012196986936032,-0.0017702621407806,-0.540389895439148,0.1110776513814938,9.805766105651855
1.8839163780212402,0.0005232972907833,-0.001757132820785,0.0003573019057512,-0.5484775304794312,0.0968070253729832,9.786712646484377
1.8877794742584229,-0.0001161058899015,0.0010089233983308,-0.0001623858697712,-0.5480037331581116,0.1164265275001537,9.784418106079102
1.8917903900146484,9.615962335374206e-05,-0.0018672372680157,0.0008874698542058,-0.5580458045005798,0.1092662364244473,9.782448768615724
1.8957784175872803,-0.0006436696276068,0.001943496055901,0.0013373582623898,-0.5551629662513733,0.1210329532623303,9.793883323669434
1.8997814655303955,0.0002041606785496,-0.0009017506381496,-0.0010209525935351,-0.55615234375,0.1197618097066891,9.791057586669922
1.903792381286621,0.0013772256206721,0.0013226669980213,0.0015472839586436,-0.5556504130363464,0.116466522216798,9.78307056427002
1.9077684879302979,0.0003101811162196,0.00058523286134,-0.0006876536644995,-0.5437936186790466,0.0973864942789089,9.771931648254396
1.911790370941162,-0.0019155942136421,0.0001618744572624,-0.0002779401838779,-0.546078622341156,0.1044660881161701,9.783406257629396
1.9198064804077148,-0.001819621422328,0.0006821554852649,0.0013236091472208,-0.5585281848907471,0.1006285250186932,9.793825149536133
1.9237844944000244,0.0020080860704183,-0.0003824213927146,0.0016430732794106,-0.544678807258606,0.1029839441180241,9.799086570739746
1.9277803897857666,0.0007349429070018,-0.000267014169367,4.443479701876644e-05,-0.5599965453147888,0.1020289957523357,9.797636985778809
1.931779384613037,0.0021193514112383,-0.0006982217309996,0.0010046889074146,-0.5547377467155457,0.1134288907051098,9.808117866516112
1.9357802867889404,0.001591530162841,-0.0007001373451203,0.0014337957836687,-0.5537974238395691,0.1239704191684735,9.816292762756348
1.943791389465332,0.0016925018280744,-0.0003739421372301,0.0002594711259007,-0.5666792988777161,0.1125872731208813,9.788169860839844
1.947904348373413,0.0016908997204154,-0.0002763898228295,0.0018553137779235,-0.5618962049484253,0.0991713628172886,9.793814659118652
1.9517953395843506,0.0002042324922513,-0.0003771277260966,0.0011070240288972,-0.5451867580413818,0.099614202976228,9.796695709228516
1.955768346786499,0.000626900116913,0.0011081732809543,0.0007940656505525,-0.5246004462242126,0.0957982838153851,9.796696662902832
1.9597899913787842,-0.0013983931858092,0.0014295780565589,0.0011154152452945,-0.5494316220283508,0.0968161374330532,9.785728454589844
1.9638020992279053,0.000206234093639,0.0001636727829463,-0.0013381773605942,-0.5499516725540161,0.1015225797891628,9.802867889404297
1.967790126800537,-0.0002236198779428,-0.0003798883408308,0.0014273240230977,-0.5480533242225647,0.1005042493343365,9.81427001953125
1.9717979431152344,-0.0002231824764749,-0.0009106342913582,0.0011040200479328,-0.546632707118988,0.1215650886297238,9.812453269958496
1.9757909774780273,-0.0009665917605161,-0.0025039003230631,3.405660390853912e-05,-0.5413376688957214,0.1029873490333569,9.799600601196287
1.9837872982025146,-0.0006499922601506,0.0026033357717096,-0.0002653370611369,-0.5556835532188416,0.1121043190360081,9.793410301208496
1.9917981624603271,0.000513156177476,0.0018555065616965,-6.51846639811995e-05,-0.5350595116615295,0.1044369339942944,9.797223091125488
1.9998040199279785,-0.0007530450238846,0.0015420042909681,-0.0002699168398976,-0.5556758642196655,0.1039756014943134,9.79051685333252
2.003786087036133,0.0008425420382991,0.0006873788079246,0.0006843758746981,-0.5442083477973938,0.1015638858079922,9.796713829040527
2.0077900886535645,-0.0005387642304413,-0.0005900823161937,0.0006794040091335,-0.5504934191703796,0.10570988059044,9.82564926147461
2.0117931365966797,-0.0032011847943067,-0.0001630420156288,0.0004625096917152,-0.552847146987915,0.1067357361316693,9.815225601196287
2.0158140659332275,-0.0020300282631069,-0.000588476890698,-0.0003915596753358,-0.5652307868003845,0.1074066609144222,9.771503448486328
2.0197789669036865,-0.0012862898875027,0.0011128584155812,0.0007904185913503,-0.5546610951423645,0.1184144318103802,9.761157989501951
2.0237860679626465,-0.0015003021107986,-0.0008014893974177,0.0003558350726962,-0.5432201623916626,0.1274536699056637,9.778753280639648
2.027799129486084,-0.0024556526914238,-0.0019659048411995,-0.0009311255998909,-0.5446730852127075,0.12600837647915,9.785387992858888
2.0318081378936768,-0.0011811315780505,-0.0024008026812225,0.0012009795755147,-0.5542312860488892,0.1159491986036312,9.78582763671875
2.035926103591919,-0.0008576808031648,-0.0007966586272232,-0.0010275444947183,-0.5614261627197266,0.1106643676757824,9.792914390563965
2.0397911071777344,0.001272810739465,-0.0017551634227856,-0.0006042341701686,-0.558109700679779,0.1158027797937405,9.820493698120115
2.0437891483306885,0.0005232574767433,-0.0004827007069252,0.0002542198635637,-0.5561769008636475,0.1077561900019657,9.801461219787598
2.0478971004486084,-0.0011608989443629,0.0005954063381068,-0.0005948171019554,-0.543256402015686,0.10640498250723,9.801143646240234
2.05179500579834,-0.0010751344962045,-0.0009106581564992,0.0011002067476511,-0.5508772134780884,0.0987896323204052,9.775310516357422
2.0558080673217773,-0.0001146700233221,-0.0022920242045074,0.0004640389233827,-0.5494555234909058,0.0920538455247891,9.782319068908691
2.059803009033203,-0.000965075159911,-0.0005790740251541,-0.0008117081597447,-0.5389227867126465,0.1035955324769032,9.769683837890623
2.063783645629883,-0.0017115536611527,-0.0017574110534042,-7.857708260416963e-05,-0.5274211764335632,0.0892325341701519,9.77097225189209
2.067952871322632,-0.0015019923448562,0.001446658745408,0.0002517499960958,-0.5427852272987366,0.0983209908008587,9.773822784423828
2.0718154907226562,-0.0014894689666107,0.0005566072650253,-0.0015568826347589,-0.5432395339012146,0.0944260731339466,9.773832321166992
2.0757927894592285,-0.0014928488526493,5.472500924952308e-05,-0.0016700127162039,-0.5590080618858337,0.0991385504603397,9.791827201843262
2.0798068046569824,0.0012664427049458,0.0011224336922168,-0.0020742262713611,-0.5642629265785217,0.1183610856533062,9.7772798538208
2.083925485610962,-0.0010734387906268,0.0002636677818372,0.0002538207918405,-0.5547062158584595,0.1159850955009472,9.778205871582031
2.088587760925293,-0.0012359104584902,-0.0003484558255877,0.0013105012476444,-0.5527759790420532,0.0948918834328663,9.8067626953125
2.0925986766815186,-0.0024539425503462,-0.0013365151826292,0.0015233885496854,-0.5657379627227783,0.089076951146127,9.807084083557127
2.096611738204956,-0.0015019469428807,0.002177421702072,0.0001536346971988,-0.5709885358810425,0.0973102971911442,9.78570556640625
2.100585699081421,-0.0005463997949846,0.0003642649680841,0.0013190922327339,-0.5781619548797607,0.0949376225471508,9.784266471862791
2.1045994758605957,-0.0001078238565241,0.0006942736217752,-0.0010109194554388,-0.567698061466217,0.0905935466289532,9.784220695495604
2.1085877418518066,-0.0005455238278955,-0.0013291381765156,-0.0004004179500043,-0.5638183355331421,0.0973013043403637,9.784765243530272
2.1125988960266113,0.0004155978676863,-0.0005889880121685,0.0001449715346097,-0.5571205019950867,0.1086905449628841,9.799025535583496
2.11659574508667,-0.0006457419949583,-0.0006901681190356,-0.0007089804857969,-0.5567095875740051,0.1191235333681118,9.828564643859863
2.1205928325653076,-0.0004286849580239,0.0001678464032011,-0.0023023611865937,-0.5461783409118652,0.1028916090726864,9.82328987121582
2.1245858669281006,0.0005271174013614,-0.0005754610756412,-0.0018819305114448,-0.5547472834587097,0.0933152586221707,9.820396423339844
2.1285908222198486,0.0003062289906665,-0.0010175958741456,0.0010979520156979,-0.5648069381713867,0.0976863950490963,9.80613613128662
2.1365880966186523,0.0008422850514762,-0.0019700317643582,0.0004574563354253,-0.5556458234786987,0.1088329702615749,9.772453308105469
2.144587755203247,-0.0034144013188779,0.0011154661187902,3.7926249206066e-05,-0.557603120803833,0.1006082594394695,9.794293403625488
2.148704767227173,-0.0008625265327282,-0.001436493708752,-0.0001806975342333,-0.5547564625740051,0.1034496873617184,9.803322792053224
2.1526007652282715,-0.0005372865125536,-0.0005820818478241,-0.0013496680185198,-0.5748468637466431,0.106762968003751,9.80804443359375
2.156585693359375,-0.0003386029566172,-0.0011239970335736,0.0020535229705274,-0.5653164386749268,0.112960383296014,9.812878608703612
2.160609483718872,0.003705260111019,0.0016213143244385,0.0014445465058088,-0.5604468584060669,0.1016478687524807,9.79099178314209
2.168595552444458,-0.0005396266351453,0.0020754067227244,-0.0008021728135645,-0.5489827394485474,0.110274836421014,9.776290893554688
2.1766016483306885,9.908321226248518e-05,0.0004796520224772,-0.0005963742733001,-0.5810056328773499,0.1040452346205723,9.777624130249023
2.1845946311950684,0.0021158303134143,0.0009990762919187,0.0024931710213422,-0.5413578152656555,0.104890860617162,9.80286693572998
2.1926028728485107,-0.0010704367887228,0.0001630519836908,-0.0011273981072008,-0.5522871017456055,0.096725642681123,9.792654037475586
2.196601629257202,-0.0001149996533058,-0.0011256563011556,0.0011054156348109,-0.5518035888671875,0.0900143757462513,9.795464515686035
2.200662612915039,-7.140435627661645e-06,5.561835132539264e-05,-0.0006983601488173,-0.5455809831619263,0.0991441905498516,9.788400650024414
2.204592704772949,-0.0001134143094532,-0.0007972856983542,-0.0009191520512104,-0.5475174188613892,0.1143849343061459,9.802248001098633
2.208596706390381,0.0013744696043431,0.0010064758826047,-0.0001634913496673,-0.5499430298805237,0.1119236424565327,9.823112487792969
2.2127466201782227,0.0007413832936435,0.0004811040125787,-0.0012281164526939,-0.5355745553970337,0.1100477278232586,9.80748462677002
2.2166035175323486,-0.0004320848092902,-0.0002688246022444,-0.0003804215230047,-0.5417691469192505,0.1129992306232464,9.790356636047363
2.2205965518951416,-0.0034181592054665,-0.0017623882740736,0.0016276710666716,-0.5685458183288574,0.1096489727497112,9.795543670654297
2.224607467651367,-0.0008607421186752,-0.0010137356584891,0.000143579673022,-0.5786155462265015,0.08805711567402,9.80445671081543
2.2286086082458496,-0.0008583037997595,0.0012117834994569,0.000364314764738,-0.5657343864440918,0.0952665358781826,9.797869682312012
2.232698678970337,0.0014813435263931,0.0005850204033777,-0.0001646946184337,-0.5546655654907227,0.0929570719599735,9.78171157836914
2.2367115020751953,-8.082584827207029e-06,0.0016491942806169,-0.000268897973001,-0.5464924573898315,0.1097730100154888,9.767533302307127
2.2406187057495117,-0.000864487432409,0.0021810010075569,0.0026104822754859,-0.5317080020904541,0.1208064556121838,9.757739067077637
2.2446036338806152,-0.0007607055595144,0.0008956856327131,0.0009007672779262,-0.5474226474761963,0.1183506995439541,9.77125358581543
2.248711585998535,-0.000646645319648,-5.7859026128426126e-05,0.0005704928189516,-0.5441540479660034,0.1058398857712757,9.787962913513184
2.2526702880859375,0.0007362350006587,-0.0009151956182904,0.0014231423847377,-0.5527841448783875,0.1149045079946529,9.794174194335938
2.2565956115722656,-0.0015018932754173,-0.0015503328759223,0.0010962737724184,-0.5499436259269714,0.1205124855041516,9.82460594177246
2.264601945877075,9.753773338161408e-05,0.0003728205629158,-0.0005957684479653,-0.5662174224853516,0.1114356815814984,9.821647644042969
2.2686150074005127,0.0003062068426515,-0.0010107877897098,0.0003575598821043,-0.5556771755218506,0.1124603897333157,9.802831649780272
2.27264404296875,0.0009506870410405,0.0007823647465556,-6.040744483470926e-05,-0.557924747467041,0.1122126281261456,9.753846168518066
2.2766571044921875,-0.0009645367390476,0.0016507965046912,0.0009003598242998,-0.554631769657135,0.12269026041031,9.755277633666992
2.2806060314178467,0.0005233923438936,-0.0003865155740641,0.0018497025594115,-0.5651373863220215,0.1257032006979,9.735273361206056
2.284688949584961,0.0013748592464253,0.0015425143064931,-0.0002631326206028,-0.5594757795333862,0.1091890782117855,9.789320945739746
2.2886080741882324,0.0007350029773078,0.0006908085779286,-0.0004858584143221,-0.5685539841651917,0.0982242450118076,9.779744148254396
2.292675018310547,0.0011623918544501,0.0003706838469952,-0.0002744742669165,-0.5451191663742065,0.0933913439512264,9.79217529296875
2.296612024307251,-0.0021390123292803,-0.0003727617149706,-0.0002831248566508,-0.5557246208190918,0.1161893457174313,9.831243515014648
2.308603286743164,-9.09755181055516e-06,0.0018576051807031,0.0005815140902996,-0.5532714128494263,0.0923868864774716,9.803081512451172
2.3127360343933105,0.0006264005205594,0.0028266559820622,-0.0008985744789242,-0.547918438911438,0.1078082323074352,9.777156829833984
2.32059907913208,-0.0010705073364078,-0.0004746095801237,-0.001348762307316,-0.543671727180481,0.1130352839827549,9.78606414794922
2.32861328125,-0.0004365001805126,0.0017455981578677,0.0017371918074786,-0.5318490266799927,0.0980726256966602,9.796459197998049
2.3366010189056396,0.0012703033862635,0.0009055145201273,-0.0008052513003349,-0.5417988896369934,0.1019370853900921,9.807412147521973
2.344604015350342,-0.0009660226060077,-0.0001609775063116,-0.0003883237950503,-0.5465055704116821,0.1059827655553829,9.759445190429688
2.3487191200256348,0.0010580179514363,-0.0009017480188049,-0.0012392429634928,-0.538875937461853,0.102565996348859,9.773688316345217
2.352626085281372,0.002228214405477,-0.0017521415138617,-0.0018784459680318,-0.5441350936889648,0.1035363897681248,9.771322250366213
2.356611967086792,0.0008518473478034,0.000376376818167,-0.0019844816997647,-0.5408040285110474,0.1135761439800274,9.760961532592772
2.3606228828430176,0.0006112742703408,-0.0007007914828136,0.0014007650315761,-0.5516977906227112,0.1128374338150036,9.74886417388916
2.3646669387817383,0.0027575180865824,4.81703027617187e-05,0.0005748714320361,-0.5594809651374817,0.1015350371599209,9.792186737060549
2.3686420917510986,-0.000755452318117,0.0003713520418386,-0.0003837812691926,-0.5676526427268982,0.1120302677154553,9.802173614501951
2.3726398944854736,0.0004231453349348,-0.0009171073907054,0.0011014840565621,-0.5671448111534119,0.1125153452157986,9.79216480255127
2.376612901687622,0.0015907171182334,0.0002659992314875,-0.0009131818078458,-0.5695306062698364,0.1072494536638271,9.796931266784668
2.3806509971618652,-0.0005374530446715,-0.000158281502081,-0.0011327140964567,-0.5671039819717407,0.1130505651235592,9.778011322021484
2.3846189975738525,0.000294049445074,-0.0009107084479182,0.0008825473487377,-0.5489832162857056,0.1001587808132183,9.785998344421388
2.3886048793792725,0.0001831783447414,-0.0013383514015004,0.0011112876236438,-0.5426453948020935,0.1040117442607891,9.77181625366211
2.392732858657837,0.0022268660832196,-0.0002650092646945,3.733579069375995e-05,-0.556484043598175,0.1083657741546642,9.774609565734863
2.3966169357299805,0.0014801071956753,-0.0016576471971347,0.0005666757933795,-0.5733712315559387,0.0957205742597592,9.80495834350586
2.400606870651245,-0.0008549319463782,0.0016406263457611,0.0002565500326454,-0.5810338258743286,0.1057711392641079,9.8092622756958
2.4046030044555664,-7.921276846900582e-06,-0.0005871355533599,-0.0001764893531799,-0.5714850425720215,0.1110090836882603,9.812149047851562
2.408604860305786,0.000104524064227,-0.0006852996302768,-0.0020920909009873,-0.5599937438964844,0.1058027073740971,9.79786777496338
2.412630081176758,-0.0022383227478712,0.0010013068094849,-0.0001809056848287,-0.5613827705383301,0.1148513406515133,9.805028915405272
2.4166059494018555,-0.0013903914950788,0.0003748625167645,-0.0008165836334228,-0.5695355534553528,0.1249521747231495,9.796059608459473
2.420604944229126,-0.0023489147424697,-0.0020783992949873,-8.204486221075032e-05,-0.5676111578941345,0.1307356953620922,9.786588668823242
2.4246668815612793,-0.0005407088901847,-0.0013345028273761,0.0005627842620015,-0.5585612654685974,0.1178878322243702,9.780315399169922
2.4286048412323,0.0025469828397035,0.0013261255808174,0.00047402177006,-0.5570540428161621,0.1121620237827313,9.769889831542969
2.4326159954071045,0.0019094340968877,0.0014259030576795,0.000794646795839,-0.5432136654853821,0.1068277657032024,9.784139633178713
2.436614990234375,-0.0006503183976747,0.0017427345737814,0.002278733998537,-0.5451374053955078,0.1139626502990734,9.794611930847168
2.440626859664917,-0.0003299992822576,-0.0007957041962072,-0.0016632042825222,-0.5499147176742554,0.1168340966105473,9.796993255615234
2.444614887237549,0.0018973281839862,-0.0016588987782597,-0.0011205282062292,-0.5509039759635925,0.1220499575138104,9.809409141540527
2.4487228393554688,0.0007411043043248,0.0004833905841223,-0.0009192144498229,-0.5547264814376831,0.1205926239490521,9.812677383422852
2.4526166915893555,0.001591435750015,0.0001578874653205,-0.000597349833697,-0.5527926087379456,0.1149070709943783,9.795058250427246
2.4566049575805664,-0.0005412176833488,-0.001758832600899,-0.0001879264600574,-0.5456059575080872,0.1231631040573132,9.771408081054688
2.4646100997924805,-0.000966454972513,-0.0011206082999706,-0.0001844433136284,-0.5383971929550171,0.1054496020078671,9.770343780517578
2.4726321697235107,-0.0012952120741829,0.001008134917356,0.0004831589758396,-0.5451599955558777,0.1183387637138378,9.78887939453125
2.480631113052368,-0.0011878644581884,-0.0003927137586288,0.0004650428891181,-0.5422669053077698,0.1144432201981556,9.778116226196287
2.4886152744293213,0.00052772188792,0.0016543614910915,-0.0008066673763096,-0.5652617812156677,0.0948177948594105,9.796381950378418
2.496633291244507,0.0001030679632094,-0.0005812933668494,3.583449870347984e-05,-0.5547523498535156,0.1033814847469341,9.80539894104004
2.5006141662597656,0.0004187554586678,0.0001306057965848,0.0003509190864861,-0.5691257119178772,0.1039459407329571,9.7778959274292
2.504671096801758,0.000205328251468,-0.001332958578132,3.143306821584718e-05,-0.5685867071151733,0.113004967570306,9.795978546142578
2.5086240768432617,-0.0023485790006816,-0.0001561162644065,-0.0011394461616873,-0.5690498352050781,0.1140129119157803,9.785037994384766
2.512639284133911,9.527218207949772e-05,0.0006774415378458,0.0023797741159796,-0.5618774890899658,0.1029960364103329,9.786913871765137
2.516731023788452,0.0014780779602006,-0.0021968290675431,0.0021553291007876,-0.5657204389572144,0.0995961129665386,9.799253463745115
2.52061128616333,0.0005243996856734,-0.0010145144769921,0.0003507593646645,-0.5704752802848816,0.1058961302042019,9.782615661621094
2.5246331691741943,0.0009524704655632,0.0005785235553048,-0.000695792492479,-0.558063268661499,0.1155159175395977,9.764688491821287
2.5286130905151367,-0.0008462404948659,0.0001869981788331,-0.0011418997310101,-0.5641877055168152,0.1169314831495297,9.747450828552246
2.5326321125030518,-0.0003269711742177,-0.0020785888191312,0.0001308945938944,-0.5613477230072021,0.1127157062292111,9.75417137145996
2.5366151332855225,0.0030785175040364,-6.085808854550112e-05,0.0008843839168548,-0.5484482645988464,0.1059589236974728,9.768339157104492
2.5406200885772705,0.0015886955661699,0.0007876547169871,0.0011051278561353,-0.5609216690063477,0.1082376241683971,9.791667938232422
2.54461407661438,-0.0012868443736806,0.0012243365636095,-0.0011367304250597,-0.5566433668136597,0.1148841232061398,9.805512428283691
2.5487329959869385,0.0014831048902124,0.0011183524038642,-0.0005943924188613,-0.5623652935028076,0.1192386299371731,9.795525550842283
2.5526480674743652,-0.0005319941556081,-0.0011211121454834,0.0002298098988831,-0.5566597580909729,0.0906149446964275,9.792556762695312
2.5566141605377197,-0.0004353167605586,-0.0008103108848445,0.0003584083169698,-0.5466470718383789,0.0971390381455433,9.802938461303713
2.5606439113616943,0.0003101064939983,-0.0013406904181465,0.0018351399339735,-0.5461068153381348,0.099150061607362,9.791671752929688
2.5647428035736084,0.001801832113415,-0.0015513424295932,0.0010932399891316,-0.5604349970817566,0.0944353938102734,9.775930404663086
2.568636894226074,0.0011595889227464,-0.0004837969318032,0.000134743284434,-0.56563401222229,0.0993779450654995,9.745984077453612
2.5726399421691895,0.0011612141970545,-0.0004852143465541,0.0012052273377776,-0.5752531290054321,0.1030665859580051,9.768820762634276
2.5766308307647705,0.0004168161540292,-0.0025043278001248,0.0002397801727056,-0.5781348943710327,0.1126427352428448,9.772668838500977
2.580641746520996,0.0006352441851049,-0.0023959253448992,-0.0011475984938442,-0.568630039691925,0.1107027977705013,9.78872299194336
2.584624767303467,-0.0001129339652834,-0.0013330802321434,0.0002383315004408,-0.5599607229232788,0.0976989418268215,9.793492317199709
2.5886220932006836,-0.0002215667191194,-0.0010171602480113,0.0004540029913187,-0.5767626166343689,0.1114716082811367,9.819672584533691
2.592641830444336,0.0008388098794966,0.001108762808144,0.0022867666557431,-0.5605280995368958,0.1152522116899502,9.819299697875977
2.596630096435547,-0.0001140040403697,0.0003678050998132,-0.0001758830621838,-0.565218985080719,0.1173598170280468,9.786964416503906
2.600627899169922,0.0008472484187223,0.00059182906989,-0.0020911642350256,-0.5580651760101318,0.1192588210105908,9.789813995361328
2.6046218872070312,-0.00085361499805,0.0021824894938617,-0.0006044674664735,-0.5422983169555664,0.118717059493066,9.79510498046875
2.608668804168701,-0.0026595050003379,0.0006999769248068,-0.0014528413303196,-0.5370597839355469,0.1206913590431225,9.798395156860352
2.616623878479004,-0.0003287311701569,-6.083070184104133e-05,0.0009865737520158,-0.5570479035377502,0.123716175556184,9.75561809539795
2.624638795852661,0.0003055349807254,-0.0010181113611906,0.0021552750840783,-0.5503816604614258,0.1102178692817699,9.776948928833008
2.6326448917388916,0.0006289497832767,0.0010014546569436,0.0014206147752702,-0.5690419673919678,0.1202929466962826,9.773170471191406
2.6406238079071045,-0.0023390692658722,-0.000147261947859,-0.0008161370642483,-0.55852210521698,0.1111709624528896,9.787423133850098
2.648627758026123,-0.001173170749098,0.0007959618233144,-0.0016748788766562,-0.5638306736946106,0.1020976081490528,9.789715766906738
2.6526548862457275,-0.0009660031064413,0.0022872735280543,-0.0002791048027575,-0.560920000076294,0.0972709804773342,9.782146453857422
2.656676769256592,-0.0022389281075447,-5.2935531130060615e-05,-0.0005049011670053,-0.5618940591812134,0.1140165179967892,9.785479545593262
2.660632371902466,0.0009513426339253,-0.0010133328614756,-7.706275209784496e-05,-0.5571478605270386,0.11150921881199,9.811627388000488
2.668778419494629,0.0019090637797489,0.0004753393004648,-7.09537416696549e-05,-0.5532740354537964,0.0992089286446583,9.782596588134766
2.6726484298706055,0.0011679852614179,0.0031360432039946,4.2346771806478114e-05,-0.5441392064094543,0.1136141121387493,9.760790824890137
2.676647424697876,-0.0002273004938615,0.0038739773444831,0.0020684762857854,-0.5584955811500549,0.1236871629953396,9.767494201660156
2.6806442737579346,0.0004143145342823,-0.0001696564140729,0.0014118370600044,-0.5676305294036865,0.105892524123193,9.785452842712402
2.688629388809204,-9.554059943184257e-06,0.0004678879049606,0.0018421513959765,-0.5690330266952515,0.1026205494999897,9.768303871154783
2.6927244663238525,0.0008368861745111,-0.0015470918733626,0.0015210174024105,-0.5619228482246399,0.1068166792392742,9.787338256835938
2.700629472732544,-0.0003262847312726,-0.0004834240535274,0.0009835883975028,-0.557085394859314,0.1078613996505749,9.77310848236084
2.704629421234131,0.000735614739824,-0.0012239671777933,-0.0003971736878156,-0.5594963431358337,0.1116274520754826,9.786867141723633
2.708627700805664,-0.0004248706391081,0.0008895635837689,-0.0013513057492673,-0.56325763463974,0.1293114423751843,9.77242374420166
2.712641477584839,-0.0005380074726417,-0.0003670013684313,0.0002397089265286,-0.5499163866043091,0.1121672093868267,9.778322219848633
2.7206382751464844,-0.0017126955790445,-0.0002780676295515,0.001198730431497,-0.5552311539649963,0.1081623286008846,9.810650825500488
2.7286455631256104,0.0013736634282395,-0.0016638275701552,0.0024733687750995,-0.5705443620681763,0.0961860716342938,9.815314292907717
2.7366294860839844,0.001161566353403,0.0002594896941445,0.0007770387455821,-0.5599614381790161,0.1202931329607975,9.775538444519045
2.7446444034576416,-0.0006453427486121,0.0006902344757691,-0.0003946321085095,-0.548990786075592,0.0976987183094036,9.799681663513184
2.748762369155884,-0.0007497067563235,-0.0006876035477034,-0.0012515573762357,-0.5599627494812012,0.1078374460339558,9.778812408447266
2.752638578414917,0.0010545299155637,-0.0005936255911365,0.0008779880590736,-0.5537376999855042,0.1040875837206852,9.7631254196167
2.7606492042541504,-0.0004346417845226,-0.000597212347202,0.0018343050032854,-0.5504818558692932,0.0951575115323078,9.835280418395996
2.7686400413513184,-0.0013931754510849,0.0007869987748563,0.0004557380452752,-0.5518641471862793,0.0972660928964626,9.795823097229004
2.7766621112823486,-0.0002293430297868,0.000889134244062,0.0025615664198994,-0.5566613674163818,0.1264268010854733,9.788922309875488
2.7846431732177734,-0.0021341950632631,0.0029251764062792,-0.0007067038677632,-0.5666698217391968,0.0987494811415684,9.779668807983398
2.792661190032959,0.0027581832837313,0.0005762141663581,0.0012053712271153,-0.5609697699546814,0.0991171151399624,9.804885864257812
2.8006432056427,9.734545892570168e-05,0.0007908027619123,0.0008824500255286,-0.5499661564826965,0.1038915961980831,9.806819915771484
2.808640241622925,0.0011637990828603,-0.0006956700817681,2.087885513901719e-05,-0.5212591290473938,0.1029528379440319,9.803098678588867
2.816681146621704,-0.0003132130659651,0.0006953316042199,-0.0009386739693582,-0.5523555278778076,0.1059006080031406,9.789294242858888
2.8246500492095947,0.0013793935067951,-0.0008990042842924,-0.0022093364968895,-0.5441657900810242,0.0858888030052197,9.76875114440918
2.8326661586761475,0.0013738364214077,-5.309001426212501e-05,-0.0009243725799024,-0.5727987289428711,0.1111980751156818,9.795452117919922
2.8406381607055664,0.0024342210963368,-4.741529119201005e-05,-6.89476728439331e-05,-0.5548107028007507,0.1101402193307888,9.807774543762209
2.848755121231079,-0.0024552254471927,-0.0009130334365181,0.00097785750404,-0.5490052103996277,0.1039034128189099,9.804899215698242
2.8566431999206543,-0.0017504461575299,-0.001533236936666,0.0012990464456379,-0.5465214848518372,0.086228020489217,9.75609302520752
2.865441083908081,0.0004205479926895,-0.0021804466377943,-0.0007262341678142,-0.5623447895050049,0.0773073807358753,9.762982368469238
2.869450330734253,0.0002095486561302,-0.0026090776082128,-0.0009410833008587,-0.5710070729255676,0.0881946980953228,9.788163185119627
2.87345027923584,-3.5986013244837523e-06,0.0008996106917038,-0.0012518619187176,-0.577246904373169,0.1062283366918575,9.80296802520752
2.8774592876434326,-0.0017109260661527,0.00282250973396,0.0004603210836648,-0.5753896236419678,0.1205253005027783,9.841044425964355
2.8814613819122314,-0.0022379704751074,-0.0006035839905962,0.0020331190899014,-0.5548314452171326,0.1104734987020504,9.828810691833496
2.885446310043335,-0.000874082208611,-0.0011294216383248,0.000893966294825,-0.5543036460876465,0.1215979903936398,9.797417640686035
2.8894412517547607,0.0024418751709163,5.077375681139525e-05,-0.0002891947515308,-0.5513703227043152,0.1174178645014774,9.7783784866333
2.8936073780059814,0.0009421541471965,-0.0001672839280217,0.0008816812187433,-0.5518657565116882,0.1074391752481472,9.763534545898438
2.8974530696868896,0.0006336180958896,0.0011074983049184,0.0018410356715321,-0.5550321936607361,0.1109486520290386,9.735027313232422
2.9014892578125,-0.0001148159644799,-0.0003847096231766,0.0029918998479843,-0.5469697713851929,0.1065616607666027,9.76065444946289
2.9054412841796875,-0.0012795557267963,-0.0013384461635723,0.0012923097237944,-0.5570939183235168,0.1155138313770306,9.77261734008789
2.9094414710998535,0.0003079148300457,-0.0010189363965764,0.0018431399948894,-0.5604375004768372,0.122664123773576,9.790230751037598
2.9174413681030273,-0.001068377867341,0.0015383304562419,0.0007717874832451,-0.5619317889213562,0.113022565841676,9.803065299987791
2.9214532375335693,-0.000863239634782,0.0031266200821846,0.0016361721791326,-0.5628944039344788,0.1015027090907109,9.81103515625
2.925452470779419,-0.0010733284289017,0.0031287434976547,0.0019524083472788,-0.5566615462303162,0.0962992385029804,9.794915199279783
2.9334423542022705,-4.480156349018216e-06,0.0033480720594525,-6.827199831604998e-05,-0.5623366236686707,0.0907190069556248,9.75450611114502
2.9374732971191406,-0.0009636661852709,-0.0009058763971552,-0.0003001862205564,-0.5589930415153503,0.0840190649032604,9.758259773254396
2.941500425338745,-0.0002192933898186,-0.0026106385048478,1.2779142707586609e-05,-0.5614217519760132,0.1064049750566494,9.782119750976562
2.945594310760498,0.0010583096882328,-0.0016620233654975,0.0004427134990692,-0.5653039813041687,0.1111014038324368,9.798340797424316
2.9495222568511963,-0.0007588291773572,-0.002399245975539,0.0009692348539829,-0.5691142678260803,0.1316685080528271,9.808868408203123
2.953460454940796,-0.00224224710837,0.0005859209923073,0.0003434098325669,-0.5758519172668457,0.116691902279855,9.82824420928955
2.9574532508850098,-0.0008593658567406,0.0023872654419392,0.0007769321091473,-0.5576431155204773,0.1000529900193226,9.810135841369627
2.961473226547241,-0.0008585104951635,0.0023952736519277,-0.000603964086622,-0.5423150062561035,0.1154282391071331,9.79694652557373
2.965564250946045,0.0001011666463455,-0.0002650616806931,-0.0006148880347609,-0.5475232005119324,0.0950116366148006,9.761659622192385
2.9695003032684326,-0.0013889602851122,0.0012195991585031,0.000562525819987,-0.553136944770813,0.0956586152315151,9.731081008911133
2.9734551906585693,0.0008484130958095,0.0001511912269052,-0.0002870536409318,-0.562746524810791,0.107553079724313,9.72205924987793
2.977468252182007,-0.0003265782725065,-0.0021898276172578,0.0004475023597478,-0.5665937066078186,0.097338341176511,9.759637832641602
2.9814682006835938,-0.0022462368942797,-0.0029284404590725,0.0005441294051706,-0.5627812147140503,0.0881462320685398,9.775224685668944
2.9854490756988525,-0.0011702609481289,-0.0012334312777966,0.0009766235016286,-0.5666671395301819,0.0871376916766178,9.797991752624512
2.9894492626190186,-0.0046917400322854,-0.0019695858936756,0.0005476484075188,-0.5652260184288025,0.0870315954089176,9.81273365020752
2.993655204772949,-0.0011787900002673,-0.0008072429918684,0.0013010003603994,-0.570487916469574,0.0933337062597286,9.800886154174805
2.997493267059326,0.0013744767056778,-0.0008142475853674,0.0006727357394993,-0.5633401870727539,0.1081451624631893,9.813794136047363
3.001464366912842,0.0006265919073484,0.0002675728173926,0.0015163230709731,-0.5748139023780823,0.1091333180665981,9.787494659423828
3.0054492950439453,0.0016932799480855,4.8024143325164894e-05,-0.0001801182515919,-0.5704194903373718,0.1088588088750851,9.76439380645752
3.009556293487549,-0.0011751386336982,0.000900134735275,0.0006701657548546,-0.5666207671165466,0.1077981144189846,9.77484130859375
3.013580322265625,-0.0008564483723603,-0.0010177568765357,2.2875610738992816e-05,-0.5584672689437866,0.1092953309416782,9.76295280456543
3.017575263977051,-0.0011821835068985,5.309228436090048e-05,-0.0003959280438721,-0.5537084341049194,0.1048572659492504,9.787216186523438
3.021461248397827,-0.001175494864583,0.0011144448071718,3.201235085725771e-05,-0.5451271533966064,0.1077145487070095,9.795291900634766
3.025491237640381,0.0002026245783781,-0.0002843177353497,0.0019462769851088,-0.545155942440033,0.110464245080949,9.824362754821776
3.029459238052368,0.0006381173734553,-0.0010182177647948,-0.0004136534407734,-0.5494729280471802,0.121014177799226,9.819966316223145
3.0335693359375,-0.0013875507283955,-0.0015398884424939,-0.001364360563457,-0.5566267371177673,0.1277675181627285,9.803454399108888
3.037614345550537,-0.0005319125484675,-0.0010155433556064,-0.0006130584515631,-0.5556069612503052,0.1307372599840176,9.776358604431152
3.0414743423461914,0.0018096709391102,-0.0002621407038532,-0.0006162011995911,-0.5475080609321594,0.101931616663934,9.775826454162598
3.0454492568969727,-0.0005329207051545,0.0022929003462195,-0.0016655726358294,-0.5599569082260132,0.1019845455884945,9.787636756896973
3.04958438873291,-5.035515641793609e-06,0.0015414700610563,-0.000283932313323,-0.547023594379425,0.114446982741357,9.78818416595459
3.053492307662964,-0.0001070444850483,0.0014375974424183,-0.0008170697838068,-0.5398562550544739,0.1139306128025066,9.79531955718994
3.0574493408203125,-0.0008731803973205,0.0015388487372547,0.0014229360967874,-0.5557433366775513,0.114431217312814,9.786779403686523
3.0654683113098145,0.0007392764091491,0.0006913606775924,-0.000176494475454,-0.563365638256073,0.1162062659859669,9.822381973266602
3.073524236679077,-0.0011666347272694,0.0001739279250614,-0.0018947548232972,-0.5475866198539734,0.1062683761119854,9.782419204711914
3.0774643421173096,-0.0006473942194133,-0.0016646397998556,-0.000392725225538,-0.558493971824646,0.0972527116537106,9.777167320251465
3.0816123485565186,-0.0009642365621402,-0.0010157107608392,-0.0002985228784382,-0.5560863614082336,0.0953769832849514,9.775741577148438
3.0855753421783447,-0.0023466940037906,-0.0011169653153046,-0.0007283557206392,-0.555181622505188,0.1058311313390743,9.790099143981934
3.089463233947754,-0.0008522839052602,0.0010184198617935,-0.002096455078572,-0.547003448009491,0.1015644147992146,9.783385276794434
3.0934581756591797,0.002230207202956,-0.0019758446142077,0.0003403071314096,-0.531236469745636,0.1048933118581783,9.785330772399902
3.0974583625793457,0.0007399852038361,0.0021731005981564,0.0007823384366929,-0.5479772090911865,0.1063157469034206,9.790096282958984
3.101525068283081,-0.0011820951476693,0.0030025993473827,0.0017467122524976,-0.5618760585784912,0.0991357490420353,9.792506217956545
3.105584144592285,-0.0003193105221726,0.0018596756272017,0.0009815632365643,-0.5541760325431824,0.1044018566608441,9.802886962890623
3.109469175338745,-0.0005349787534214,0.0012286845594644,-0.0015667784027755,-0.5542142987251282,0.1106285005807888,9.78771686553955
3.113459348678589,0.0006377862300723,0.0014422172680497,-0.0011386731639504,-0.5551378130912781,0.1077745780348789,9.784387588500977
3.1175012588500977,0.0008468832820653,-5.231308750808249e-05,-0.0008242423646152,-0.5537566542625427,0.1105736196041119,9.800559997558594
3.1214711666107178,0.0011631458764895,4.59352741017939e-05,0.0010952148586511,-0.5638154149055481,0.1043458208441746,9.798606872558594
3.125462293624878,0.0011654805857688,0.0017539802938699,-0.0003744335845112,-0.5675809979438782,0.0948625057935726,9.783452033996582
3.1295783519744873,0.000424153462518,0.0002752650761976,-0.0027396362274885,-0.5637657046318054,0.0953591018915188,9.78101634979248
3.1334891319274902,-0.0004308235365897,0.0005880036624148,-0.0012461734004318,-0.5561152696609497,0.1111436560750019,9.78106689453125
3.1374833583831787,0.0010569824371486,-0.0014421418309211,0.0006629792042076,-0.5556302666664124,0.0981790274381649,9.789121627807615
3.1414711475372314,9.734713239595294e-05,-6.50660076644269e-05,0.002150859683752,-0.5494329929351807,0.0905147045850765,9.788558959960938
3.1454622745513916,0.0008431707392446,-0.0016545462422072,0.0011942726559937,-0.5475496053695679,0.0986084789037716,9.801015853881836
3.1495752334594727,-0.0001100735826184,-0.0008064601570367,0.0004429970867931,-0.5446627736091614,0.1034339219331753,9.791040420532228
3.153459072113037,-0.0002183575852541,-0.0006862573791295,0.0008731675334274,-0.5460847020149231,0.1164118871092808,9.782509803771973
3.1574583053588867,-0.0006492625107057,0.0007862907368689,0.0015172651037573,-0.5446165204048157,0.0982763171195995,9.770617485046388
3.1616320610046387,0.0019041011109948,0.0002471227780915,0.0035406285896897,-0.5575575828552246,0.1010961830616009,9.782485008239746
3.1656529903411865,-1.0932984878309073e-05,-0.0001751863455865,1.2629199773073218e-05,-0.5471115112304688,0.1192885339260113,9.79298210144043
3.1695799827575684,0.0016252151690423,0.0002978815464302,-0.0013504126109182,-0.5537334084510803,0.105792284011842,9.779218673706056
3.173598051071167,0.00083533936413,0.0002559974091127,-8.226279169321063e-05,-0.5546773076057434,0.1183563619852078,9.779204368591309
3.1774699687957764,0.001071335049346,0.0013358595315366,-0.0013514943420886,-0.5628867149353027,0.1042967587709439,9.803959846496582
3.181502103805542,0.0017960249679163,-6.434661918319758e-05,0.0003519942983984,-0.5561106204986572,0.1192015931010258,9.797195434570312
3.1854641437530518,-0.0003259674122091,-0.0021924157626926,0.0018229465931653,-0.5484475493431091,0.1183062940835964,9.787857055664062
3.1894609928131104,-0.0001163371489383,-0.0004881627392023,0.0005560317076742,-0.5680584907531738,0.1150192916393292,9.775420188903809
3.193585157394409,-0.0003274898626841,0.0023891278542578,0.0006718612276017,-0.5604355335235596,0.1130590587854397,9.781597137451172
3.1974711418151855,-0.0016071387799456,0.0004634056822396,0.0020446381531655,-0.5537184476852417,0.1102384477853787,9.768754959106444
3.201482057571411,-0.0012833973160013,-0.0015435190871357,-0.0005146921612322,-0.5575637817382812,0.1072981208562862,9.787720680236816
3.2054641246795654,-0.0002186499623348,-0.0011228903895244,0.0006564706563949,-0.5595124959945679,0.1215832233428967,9.801129341125488
3.209463119506836,9.464676259085536e-05,4.091058508493021e-05,0.0011934810318052,-0.5628576874732971,0.1020605713129055,9.787270545959473
3.2135980129241943,-0.0001111630408558,0.0001529189030406,0.0007690223865211,-0.5595126748085022,0.1067338809371006,9.806276321411133
3.217582941055298,0.001908864476718,-0.00027425942244,0.0006561684422194,-0.5585808157920837,0.108689457178117,9.797266960144045
3.2215046882629395,0.0002088885667035,0.0011425230186432,-0.0023223306052386,-0.5590187311172485,0.1020466536283505,9.791470527648926
3.2254750728607178,0.0003195084864273,0.000796900014393,-0.0022089048288762,-0.5643072724342346,0.1006530672311794,9.778738021850586
3.2294600009918213,0.0003210551221854,-0.0003642255906015,-0.002320738043636,-0.5595052242279053,0.1101706176996243,9.786898612976074
3.233631134033203,-0.001172790187411,-0.0019751004874706,-0.0008343141525983,-0.5580763220787048,0.0950099378824246,9.751133918762209
3.2376060485839844,-0.0012952026445418,-0.000901736319065,0.0009968434460461,-0.5782087445259094,0.1083815768361103,9.773691177368164
3.241485118865967,-0.0006405845051631,0.0009037161944434,0.000768223311752,-0.580510675907135,0.1212261617183697,9.77968406677246
3.2454659938812256,-0.0004272476653568,0.0016560673248022,-0.0023123170249164,-0.5714324116706848,0.1236057728528988,9.775923728942873
3.2496140003204346,-0.0012791546760126,5.419665831141143e-05,-0.0025351082440465,-0.5738527178764343,0.1230192333459866,9.800132751464844
3.2534732818603516,-0.0001100190420402,-0.0010058081243187,-0.0009300569072365,-0.5642837285995483,0.1230494529008877,9.800293922424316
3.2575747966766357,-5.305613740347326e-06,-0.0003703305847011,-0.0010435301810503,-0.5666469931602478,0.1231371909379971,9.77453327178955
3.2616286277770996,0.0004249995108693,0.0002749906561803,-0.002425527665764,-0.548920750617981,0.1093023121356976,9.765968322753906
3.2654836177825928,0.0019115640316158,-0.0003709874290507,-0.0008258465677499,-0.5551603436470032,0.1040752828121197,9.760210990905762
3.269476890563965,0.0024352972395718,4.609083407558508e-05,0.0005575437098741,-0.5503925085067749,0.1031401529908192,9.75880241394043
3.2774786949157715,-0.0008549464400857,-0.0012265866389498,-0.000199444591999,-0.5724328756332397,0.1019894778728497,9.79484748840332
3.2814927101135254,-0.0007537546334788,-0.0006907109636813,-0.0007225945591926,-0.543836236000061,0.0952465161681187,9.822883605957031
3.289482831954956,0.0009524298366159,0.0010106822010129,-0.0001882063224911,-0.5580720901489258,0.1125532239675533,9.793996810913086
3.2934677600860596,-0.00085457629757,0.0014388891868293,-0.001249368302524,-0.5552076101303101,0.1044199466705334,9.79063606262207
3.301480770111084,0.001060364418663,0.0016499538905918,-0.0005029649473726,-0.5614277124404907,0.1063060685992252,9.79824924468994
3.317471742630005,-0.0008585258619859,0.0007901592180132,0.0014061159454286,-0.5638247132301331,0.1029490754008305,9.799665451049805
3.3215396404266357,-0.0006453957175835,0.0001531239249743,0.0009763999842107,-0.550464391708374,0.1047319769859326,9.828214645385742
3.3294677734375,0.0002090064663207,0.0004776936257258,0.000130150001496,-0.5604677200317383,0.1086910068988812,9.800698280334473
3.337500810623169,0.0003190901479683,-0.0004758706782013,-0.0016774665564298,-0.5341753363609314,0.113431289792062,9.801783561706545
3.3414807319641113,0.0013783226022496,-0.0015398000832647,-0.001365921460092,-0.545630156993866,0.1086472123861325,9.803999900817873
3.3494834899902344,0.0007400786271318,-0.0007909329142421,-0.0014704116620123,-0.5772879719734192,0.106749050319196,9.808199882507324
3.353487491607666,-0.0006328985909931,0.0004868043470196,-0.0018945345655083,-0.5571749806404114,0.1215104833245289,9.821649551391602
3.3574676513671875,-0.001385974814184,0.0005918835522606,-0.0014719702303409,-0.5700216293334961,0.1173187792301189,9.79453182220459
3.3615283966064453,-0.0013995453482493,0.0003687503631226,0.0004468127153813,-0.568598210811615,0.121132753789426,9.799758911132812
3.3655924797058105,-0.0038273378740996,0.0009062407189048,-0.001159147825092,-0.5522811412811279,0.1207131519913685,9.780285835266112
3.369483470916748,-0.0001079084904631,-0.0019664608407765,-0.0010536182671785,-0.5532611012458801,0.0930159687995922,9.773550987243652
3.373478412628174,0.0006174747250042,0.0009867107728496,0.0002331212162971,-0.5532408356666565,0.108793154358865,9.770727157592772
3.377481698989868,0.001487071160227,0.0009013226954266,0.0009839329868555,-0.561431348323822,0.1087526530027401,9.789298057556152
3.3814964294433594,-0.0006427271291613,0.0010077262995764,-0.0002955333329737,-0.5518646836280823,0.0977538824081432,9.787816047668455
3.3854753971099854,-0.0012829363113269,0.0009090907406061,-0.0004058559425175,-0.5700348615646362,0.0991794019937527,9.791123390197754
3.3895084857940674,0.0008466154104098,-0.0023884652182459,-0.000418365933001,-0.5685999989509583,0.1154004484415066,9.80360221862793
3.397482395172119,-0.0010749041102826,0.0001445315429009,0.0027819327078759,-0.527929425239563,0.1072957664728176,9.790275573730469
3.4014883041381836,-0.0013842906337231,-5.133685772307216e-05,0.0001217355020344,-0.5441779494285583,0.1053754836320889,9.79451847076416
3.4054863452911377,0.0008324713562615,-0.0008133061928674,0.0024609309621155,-0.5571129322052002,0.1096895039081585,9.788384437561035
3.409475088119507,0.0004176393267698,0.0015332350740209,0.0017284504137933,-0.5489702820777893,0.1068563014268887,9.782201766967772
3.4136083126068115,0.0016942174406722,0.0008988896734081,0.0016243741847574,-0.5427637696266174,0.106869935989381,9.78502368927002
3.4174904823303223,0.0014823034871369,-0.0007014527218416,0.0015077926218509,-0.5380045771598816,0.1010816097259533,9.794073104858398
3.4214894771575928,0.0007377621950581,-0.0008029987802729,0.0010813162662088,-0.561471164226532,0.1014578565955174,9.815860748291016
3.4254863262176514,0.0006383652216754,-0.0002677554730325,-0.0010442556813359,-0.5676620006561279,0.1028921306133282,9.814064025878906
3.4294750690460205,-0.0003201712388545,0.001116368221119,-0.0004077488556504,-0.5705376863479614,0.1187192946672451,9.799299240112305
3.4334754943847656,-0.0006394586525857,5.09767269250005e-05,-0.0004109167493879,-0.5518963932991028,0.120698742568494,9.792716026306152
3.4376022815704346,0.0007389717502519,0.0016421158798038,0.0015150238759815,-0.5288888216018677,0.1125838607549679,9.78796672821045
3.441619396209717,0.0013777144486084,0.000363816448953,0.0014011925086379,-0.5480437278747559,0.0973080471158039,9.779794692993164
3.4456324577331543,-0.0007636792724952,5.445975693874064e-05,0.0002348055131733,-0.5508511662483215,0.1121934205293667,9.778905868530272
3.4494802951812744,0.0009716240456327,-0.0016677572857588,0.0011820113286376,-0.5452274084091187,0.1052641421556484,9.803218841552734
3.4534833431243896,0.0008427208522334,-0.0030312694143503,0.0005400856025516,-0.5600264668464661,0.102467253804208,9.806876182556152
3.457603693008423,0.0004216362722218,-0.0012333715567365,0.0015010004863142,-0.5485596060752869,0.1077066808938992,9.809289932250977
3.4616410732269287,0.000740690913517,-0.0006834893720224,-0.0019024717621505,-0.5562244653701782,0.1056903973221791,9.828332901000977
3.46553635597229,-7.216527592390776e-06,-0.0018656916217878,-0.0007313815876841,-0.55522221326828,0.1009629368782055,9.81662654876709
3.4694902896881104,-0.0016018612077459,-0.0017578733386471,0.0001166658475995,-0.5422223806381226,0.1016191691160214,9.791715621948242
3.4735162258148193,-0.0012810694752261,-0.0010169086745008,0.0014965888112783,-0.5355738997459412,0.0939469486475002,9.780247688293455
3.477494239807129,-0.0011808862909674,-0.0012313195038586,0.00064690830186,-0.535995364189148,0.0931859090924275,9.744145393371582
3.4815096855163574,-0.0003298681112937,-0.001552851870656,0.0005396888591349,-0.5393860340118408,0.0896587669849407,9.77739715576172
3.4855496883392334,-0.0005367045523598,0.0003676932537928,0.0014054388739168,-0.5494803786277771,0.1183334961533558,9.789429664611816
3.48948335647583,-0.0011756647145375,-0.0002669285167939,-0.0003067231737077,-0.5456861257553101,0.1263304352760327,9.815118789672852
3.493483066558838,-0.0010620285756886,-0.0010043173097074,-0.0026513917837291,-0.5490367412567139,0.1115308105945599,9.814169883728027
3.4976322650909424,-0.0014999399427324,0.0008050556061789,-0.0003945901989936,-0.5490800738334656,0.1063669472932827,9.788363456726074
3.501525402069092,-0.0002197739086113,4.611196345649656e-05,-0.0002991762012243,-0.5548184514045715,0.1166845485568058,9.82406997680664
3.505483388900757,-0.0004269515920896,0.0008066730806604,-0.0003002043813467,-0.566268265247345,0.1086575835943234,9.805423736572266
3.509495258331299,0.0006305978167802,0.0008962266147136,-0.0003018463030457,-0.5633519291877747,0.0997137278318417,9.789337158203123
3.5134832859039307,-0.0003223778912797,0.0025004216004163,0.0009882855229079,-0.5508620738983154,0.0982834920287144,9.76850414276123
3.517608404159546,-0.000959011784289,-0.0002592566306702,-0.0017930790781974,-0.5498992204666138,0.1079281121492397,9.761337280273438
3.5214953422546387,1.0678922990337014e-06,6.333677447400959e-05,-0.0023232661187648,-0.559990406036377,0.1035341918468487,9.780341148376465
3.5255162715911865,0.0011651042150333,0.0019702641293406,-7.830420508980775e-05,-0.5557126402854919,0.1087167710065853,9.797465324401855
3.5296154022216797,0.0022175638005137,0.0003680797817651,0.0006754240021109,-0.5586400032043457,0.1072530746459972,9.788460731506348
3.533491373062134,0.0017193267121911,-0.0003870058862958,0.0011751553975045,-0.5772607326507568,0.0944503247737896,9.776830673217772
3.5375630855560303,0.0018032419029623,0.0006888348143547,0.0007666698656976,-0.5743353962898254,0.1054449304938328,9.78177261352539
3.541504383087158,0.001695773913525,0.0001579139934619,0.0005534263327717,-0.5648049712181091,0.1030040681362164,9.791757583618164
3.545483350753784,0.000532793928869,0.0013271291973069,-0.0012541525065898,-0.5485312938690186,0.1058351993560803,9.796998977661133
3.549605369567871,0.0003125666116829,0.0010050542186945,0.0014031291939318,-0.55469810962677,0.0949770137667667,9.770346641540527
3.553488254547119,0.0011652996763586,-0.0009091199026443,0.0008654128760099,-0.5485058426856995,0.097335994243623,9.77655029296875
3.557528495788574,0.0011669917730614,-0.0002612841199152,-0.0002005374990403,-0.5494981408119202,0.1031463518738758,9.77224826812744
3.5616536140441895,0.0007441676571033,5.294763832353048e-05,-0.0006135161966085,-0.5527753233909607,0.1188797652721417,9.769678115844728
3.56561541557312,0.0011663852492347,0.0021783537231385,0.0002388032153248,-0.5489673614501953,0.1164531335234654,9.77756404876709
3.56950044631958,0.0011641907040029,0.0003627784899435,0.0016138427890837,-0.5470367670059204,0.1012304201722157,9.763277053833008
3.573643684387207,0.0006347592570818,0.0005789849674329,0.0007608025334775,-0.5552223920822144,0.1125691384077084,9.796551704406738
3.5775156021118164,0.0015931902453303,-0.0002720298070926,0.0006529348902404,-0.5671865940093994,0.1034733802080166,9.794119834899902
3.581521511077881,0.0024415459483861,-0.0001658034161664,0.0011889012530446,-0.5647906064987183,0.1058673411607754,9.793665885925291
3.585524559020996,0.0006271875463426,0.0019613231997936,0.0022613983601331,-0.5570594072341919,0.098257325589658,9.77891731262207
3.589491605758667,-0.0012758398661389,0.0002712376299314,-0.0005115247331559,-0.5475475192070007,0.0968348905444157,9.780834197998049
3.5936155319213867,0.0014849066501483,-0.0002706623636186,0.0006540669128298,-0.5432344079017639,0.1054909974336636,9.77376937866211
3.5974955558776855,-0.0005370895960368,-0.0014393697492778,-0.0003114608116447,-0.5456094741821289,0.1078990399837505,9.764747619628906
3.601503610610962,-3.967885277234018e-06,-0.0011211165692657,0.0001175827346742,-0.5432356595993042,0.1097497045993816,9.78043270111084
3.6054916381835938,0.0006357870297506,-0.0016482664505019,-0.0003104959614574,-0.554730236530304,0.1163792163133633,9.799921989440918
3.6095035076141357,-0.0001090517471311,0.0014398514758795,-0.0008290349505841,-0.5748847723007202,0.112943008542062,9.818387031555176
3.6143436431884766,-7.407488010358065e-05,1.2532953405752568e-05,-0.0017216615378856,-0.5626938939094543,0.1035042405128491,9.829943656921388
3.618298292160034,4.417437594383955e-06,-0.0003433824749663,-0.0013703959994018,-0.5528844594955444,0.0933488458395016,9.819429397583008
3.6222984790802,0.0008469560416415,0.0024005833547562,-0.0006163008511066,-0.5513625144958496,0.092049501836301,9.7861328125
3.626298427581787,0.0003140948247164,0.0008975851233117,0.0011887871660292,-0.56284499168396,0.1054577529430401,9.773736000061035
3.630298614501953,-0.000218839282752,0.0013206815347075,0.0020414688624441,-0.5594974756240845,0.1246411502361309,9.768622398376465
3.634312629699707,-0.000218432789552,-0.0005917958915233,0.0011821235530078,-0.5465719103813171,0.117406226694585,9.780945777893066
3.638427495956421,0.0008487240411341,-0.0014413067838177,0.0005409284494817,-0.5533061623573303,0.1067869216203701,9.799925804138184
3.6423165798187256,0.0022305860184133,-5.350189167074854e-05,0.000445005018264,-0.5456952452659607,0.0990899652242672,9.813716888427734
3.6464226245880127,0.0010608867742121,0.0013291282812133,2.09002755582331e-05,-0.5414244532585144,0.1032878607511532,9.837431907653809
3.650298595428467,0.0013819083105772,0.0019738744013011,-0.0014649624936282,-0.5408886671066284,0.1005631238222134,9.806077003479004
3.6542985439300537,0.0010596122592687,-0.0005866690771654,0.0015006340108811,-0.5509457588195801,0.1067996025085461,9.801347732543944
3.6583075523376465,-7.434195140376687e-06,-0.001009588362649,-0.0005086529999971,-0.5389125347137451,0.1078270673751843,9.782879829406738
3.666327476501465,-0.000223522860324,-0.0009191982680931,0.0029939101077616,-0.5638041496276855,0.1166105270385754,9.750587463378906
3.670318603515625,0.0012688997667282,0.0003626091056503,0.0020387317053973,-0.5633141994476318,0.0968838185071957,9.772735595703123
3.6743364334106445,0.0016974724130705,-0.0003735889913514,0.0002287016250193,-0.5580946803092957,0.1078026890754711,9.788074493408203
3.678340435028076,0.0010581106180325,0.0002582934394013,0.0015037087723612,-0.5590061545372009,0.1169860884547245,9.76956844329834
3.6864473819732666,0.0013838356826454,-5.5189389968290966e-05,-0.000304807908833,-0.56767338514328,0.1096780225634586,9.793728828430176
3.690319538116455,-0.000969031243585,-0.0019788069184869,0.001174047589302,-0.5619203448295593,0.1101815551519405,9.796156883239746
3.694307565689087,-0.0009599518962204,-5.320072523318227e-05,0.000329284928739,-0.539914071559906,0.1034628897905361,9.798991203308104
3.7023205757141113,-0.0002177709684474,0.0004835071740671,0.0001270663924515,-0.5561942458152771,0.1163796037435543,9.79240894317627
3.7063794136047363,-0.0004290879878681,-0.0002683706989046,0.0012867748737335,-0.5600153207778931,0.1092063561081898,9.79898452758789
3.7103185653686523,-0.0005343013908714,0.0001655740925343,-0.0012647733092308,-0.5605091452598572,0.1082535907626164,9.798035621643066
3.7143874168395996,-0.0006411759532056,-0.0015362531412392,-0.0006354143843054,-0.5733751058578491,0.1198135018348705,9.77671718597412
3.7183284759521484,0.0002086420863633,-0.0012237194459885,0.0002193441614508,-0.5547078251838684,0.1141090840101254,9.770526885986328
3.722308397293091,0.0002109546039719,-0.0021830161567777,-0.0001998520456254,-0.5594609975814819,0.1111482828855526,9.778881072998049
3.7263073921203613,-0.0009584259241819,-6.0265505453571725e-05,-0.0004132497124373,-0.5513340830802917,0.1001478955149662,9.770764350891112
3.7303075790405273,-0.0007564689731225,0.001247733249329,-0.0005180798470973,-0.54423588514328,0.1163473054766666,9.787361145019531
3.7383294105529785,0.0003142415080219,-0.0009121702751144,0.00108162779361,-0.5542611479759216,0.1109571158885967,9.81785488128662
3.742307424545288,0.0001113268808694,-0.0008956227684393,-0.002645693719387,-0.5470734238624573,0.1157536357641232,9.81552791595459
3.7464334964752197,-0.0021323927212506,-0.0003811022033914,0.0016120839864015,-0.550891637802124,0.1091028004884731,9.80503273010254
3.750307559967041,0.0011644690530374,-0.0014469686429947,0.0021433113142848,-0.5672053694725037,0.1055936664342892,9.84345817565918
3.7583115100860596,-0.0013862535124644,0.0001640275586396,-0.0020029433071613,-0.5819674134254456,0.0962307974696171,9.79306697845459
3.7623257637023926,-0.0003225442487746,0.0013289974303916,2.2855121642350988e-05,-0.5661903619766235,0.0938414037227642,9.797346115112305
3.770317792892456,0.0005286204395815,4.9166992539540015e-05,0.0006576087325811,-0.5704885721206665,0.1005459874868404,9.794039726257324
3.7743327617645264,0.0004241473507136,-0.0003727206785697,0.0009743589907884,-0.5633469223976135,0.1096552014350903,9.78840446472168
3.7823188304901123,-0.0009645735262893,0.0005731532583013,0.0022525372914969,-0.5475135445594788,0.1254568994045269,9.785170555114746
3.7863128185272217,-0.0005353658925741,-0.0028131292201578,0.0005369870923459,-0.5522902011871338,0.1244499683380139,9.803147315979004
3.7943129539489746,-0.0004269089840818,-0.0014324593357741,-0.0011609434150159,-0.5384685397148132,0.106686368584634,9.813145637512209
3.802398681640625,-0.0001088969147531,0.0011165904579684,-0.0007230029441416,-0.5509147047996521,0.1066602766513836,9.815488815307615
3.806328773498535,-0.0007533761090599,0.0003686499549075,0.0006573549471795,-0.565729022026062,0.0958031564950954,9.78162956237793
3.8103346824645996,0.0012757340446114,0.0018570382380858,0.0009826472960412,-0.5455797910690308,0.1136142313480389,9.758082389831545
3.8143348693847656,0.002543501323089,0.0013226571027189,0.0020477450452744,-0.5374472141265869,0.1164193004369747,9.777053833007812
3.822328805923462,-0.001067612087354,0.0010124146938323,-0.0001945733092725,-0.5508946776390076,0.0938412398099911,9.801199913024902
3.826312780380249,-0.0020193483214825,0.000699903583154,-0.0017923759296536,-0.544217586517334,0.1086214780807507,9.806041717529297
3.83032488822937,-0.0008549723424948,0.0001593988563399,-0.0001984382979571,-0.5556761026382446,0.1186866015195858,9.80368995666504
3.834312677383423,-0.0001115585910156,0.0006836025277152,0.0023625986650586,-0.5710179805755615,0.1004981696605694,9.813054084777832
3.838324785232544,-0.0009746977593749,3.807625034824011e-05,-0.0001984587870538,-0.5656977891921997,0.0927563682198536,9.812186241149902
3.842312812805176,-0.0004191898624412,0.0019750422798097,-0.0009328238666057,-0.574275553226471,0.1058507636189472,9.785629272460938
3.8464348316192627,0.0024454365484416,0.0005917504313401,-0.0017878664657473,-0.5503926873207092,0.1188167482614529,9.775224685668944
3.8543128967285156,0.0023363921791315,0.0006823763251304,0.0020439075306057,-0.5509127974510193,0.0947250723838818,9.815945625305176
3.8583335876464844,0.0001044091186486,0.0008997647091746,0.0005505797453224,-0.5585556626319885,0.0990500524640095,9.809808731079102
3.8624424934387207,-0.0002147406630683,0.0013307582121342,-0.000408636406064,-0.5695260167121887,0.1163170635700237,9.80077075958252
3.866445541381836,-0.0006388407782651,0.0007983822142705,0.000333419535309,-0.5762049555778503,0.1259870976209652,9.78375244140625
3.874354600906372,0.0002097861142829,-5.755713209509844e-05,0.0004383865743875,-0.5460959672927856,0.1086880266666424,9.795145988464355
3.878342628479004,0.0001093914106604,-0.0007886670064181,-0.0019026836380362,-0.543218731880188,0.1039503440260899,9.786556243896484
3.8823535442352295,-0.0004278073320165,-0.0004772999964188,-0.0007345168851315,-0.549429714679718,0.1049210727214825,9.782272338867188
3.8863322734832764,-0.0013893137220293,4.441136843524894e-05,0.0017155981622636,-0.5680867433547974,0.0992028489708912,9.77700901031494
3.8943216800689697,0.0003157756873406,5.469290772452948e-05,-0.0002020807005465,-0.565718412399292,0.1149263307452213,9.790390014648438
3.8983216285705566,-0.0020183185115456,-0.0009096412104554,0.0005437117069959,-0.5719292163848877,0.0976916030049336,9.805930137634276
3.9063515663146973,0.0005341235664673,-0.0006858890410512,-0.0027517757844179,-0.5618880987167358,0.1182375550270092,9.79989242553711
3.9143335819244385,0.0010621806140989,-0.0018688697600737,0.0001165480352938,-0.5576030611991882,0.1187334209680569,9.79661750793457
3.9183216094970703,0.0014878036454319,-0.0005851237219758,-9.551690891385072e-05,-0.5489603281021118,0.1254677176475536,9.787152290344238
3.926321506500244,0.001379967899993,-0.0002764184609986,0.0019318060949444,-0.5551825165748596,0.1034323275089275,9.794151306152344
3.93032169342041,0.0037218190263956,-0.000477683119243,-0.0004089726135134,-0.5465610027313232,0.1049320921301853,9.78230094909668
3.9383296966552734,-0.0004239227855578,-0.0004904181696474,0.0013956683687865,-0.5604701042175293,0.118104435503484,9.820837020874023
3.9464404582977295,-0.0020249884109944,-0.0003782915882766,0.0008601187728345,-0.5461195111274719,0.1053167879581463,9.80227756500244
3.950446605682373,-0.0003245469997636,-0.0017632029484957,0.0010692575015127,-0.5417651534080505,0.0925532057881367,9.768998146057127
3.9543216228485107,0.0005270793335512,0.0005804887041449,0.0005454961210489,-0.5431973338127136,0.0987912416458141,9.765201568603516
3.9623372554779053,0.0001001036725938,-0.0009112597908824,0.0016024229116737,-0.5480086207389832,0.0987095832824719,9.782307624816896
3.9703452587127686,0.0003227807173971,0.0001629204198252,-0.0013699862174689,-0.5878334641456604,0.0956563130021107,9.826098442077637
3.9743332862854004,0.0010635028593242,-0.0011146626202389,-0.0011618980206549,-0.5787270069122314,0.1070787459611904,9.835989952087402
3.978339195251465,0.0013820216991007,-0.0012292481260374,0.0006474363617599,-0.5667380690574646,0.1185981407761585,9.82938289642334
3.9823622703552246,0.0008363504894077,-0.0006948189111426,0.0003365646116435,-0.5719783306121826,0.1145445033907902,9.796677589416504
3.986328125,0.0011680719908326,0.0008008462027646,-0.0005170060321688,-0.5637733936309814,0.0958747118711483,9.77369499206543
3.9903292655944824,-0.0002159310679417,0.0005820035003125,0.0006515439599752,-0.552737295627594,0.112695485353471,9.75480842590332
3.994340181350708,-0.0009608551627025,4.9155467422679134e-05,0.0005473857745528,-0.5594339370727539,0.127416491508485,9.776734352111816
4.0023512840271,-0.0002184603508794,-0.0011310258414596,0.0025586187839508,-0.5600202083587646,0.1038334071636212,9.81650447845459
4.006338119506836,0.000958168937359,-0.000900954415556,-0.0009487746283411,-0.560023307800293,0.1100637614727032,9.810829162597656
4.010354280471802,-0.0013864163774996,0.0001592245971551,0.0001140884123742,-0.5800942778587341,0.1287095546722424,9.810909271240234
4.014465093612671,-0.0017056717770174,-0.0011257998412474,0.0014905030839145,-0.5748502612113953,0.1259037256240856,9.801846504211426
4.0183281898498535,-0.0024525318294763,4.340655868873021e-05,0.001707452815026,-0.5609356164932251,0.1077722162008297,9.793701171875
4.02232813835144,-0.0012822952121496,-0.0014469074085354,0.0018113632686436,-0.5604118704795837,0.1088705137372028,9.758584022521973
4.030328273773193,0.0014889442827552,-0.0002745801175478,0.0019269790500402,-0.5542284250259399,0.1082957684993755,9.779984474182127
4.034424304962158,0.0013807475334033,0.0007947747362777,0.0007614511996507,-0.5642820596694946,0.1159659475088131,9.774750709533691
4.042338132858276,0.000857786333654,-0.0002530018100515,0.0003104275092482,-0.5680651068687439,0.1109507977962506,9.824782371520996
4.046443223953247,1.383144990541041e-06,-0.0019814854022115,0.0014887102879583,-0.5696215033531189,0.1128279864788067,9.83651351928711
4.050347089767456,0.0005264259525574,0.00163678615354,0.001723222900182,-0.553318202495575,0.1049226596951496,9.7928466796875
4.054340124130249,0.0007406584918498,4.9103779019787975e-05,0.0005409615114331,-0.5408441424369812,0.1077531054615986,9.792314529418944
4.058328151702881,-0.0003184016386512,-0.0005819997750222,-0.0002038888633251,-0.5537647604942322,0.1054006367921841,9.788990020751951
4.0624260902404785,-0.000742964213714,-0.0022886702790856,-0.0008518598042428,-0.5561424493789673,0.10874503850937,9.783757209777832
4.070348262786865,0.0020184137392789,0.0005820418009534,0.0004436741583049,-0.563809335231781,0.1207129508256924,9.785250663757324
4.074358224868774,0.0008553016232326,0.0008103069849312,-0.0023269881494343,-0.5566412210464478,0.1203106418252003,9.775748252868652
4.0783491134643555,0.0013840718893334,0.0014434409094974,-0.0016844756901264,-0.5508648753166199,0.1179064512252819,9.771954536437988
4.082378149032593,-0.0005095456144772,-0.0013236841186881,-0.0011621606536209,-0.5551919341087341,0.1174449622631085,9.789379119873049
4.0863752365112305,-0.0023419319186359,0.0021798068191856,-0.000729501247406,-0.5681482553482056,0.1248769313097012,9.812323570251465
4.0903401374816895,-0.0014937414089217,0.0022850772365927,0.0001240954734385,-0.5781792998313904,0.1110907793045055,9.79465675354004
4.094446182250977,0.0008493805071339,0.001753662363626,0.0004429817199707,-0.561890721321106,0.1068444177508366,9.784703254699709
4.098336219787598,-0.001282887533307,0.0004716291441582,0.0010714293457567,-0.5623612999916077,0.1126324012875568,9.775230407714844
4.102355241775513,-0.0005383701063692,-0.0003832352813333,0.002456022426486,-0.5437005162239075,0.1160042807459843,9.771943092346191
4.106391191482544,-0.0002104818122461,-0.0010128077119588,-0.0004210998304188,-0.5527414679527283,0.0992962792515766,9.7623872756958
4.110413074493408,-6.305781425908208e-07,-0.0010298551060259,0.0004345965571701,-0.5474628210067749,0.0992369726300251,9.777186393737791
4.114481210708618,0.0012791685294359,-0.0005704727955162,1.4305114746094449e-06,-0.5596648454666138,0.1058508083224308,9.800935745239258
4.118352174758911,0.0008507355232723,0.0009068796643987,-0.0008377018384635,-0.5633828043937683,0.1181684210896504,9.821340560913086
4.122344255447388,-0.0005349877174012,0.000685496663209,0.0007535312324762,-0.5653111338615417,0.1153259724378597,9.817045211791992
4.12635612487793,-0.0002154114918084,-0.0004816185100935,0.0006465595215559,-0.5499855279922485,0.1024289578199398,9.81179141998291
4.130366086959839,-0.0006399230333045,-0.004311332013458,-0.0001181601546704,-0.5619077682495117,0.1019667685031903,9.805607795715332
4.13436222076416,0.0006394885713234,0.0005893912748433,-0.001264939084649,-0.5642889738082886,0.1106800436973583,9.783772468566896
4.138357162475586,0.0005312099237926,0.0023925879504531,0.0001266002655029,-0.5604735612869263,0.1077803373336803,9.791361808776855
4.1423492431640625,-0.0011671420652419,0.0006993716233409,-0.0012672021985054,-0.5432846546173096,0.0924672037363064,9.79131317138672
4.146454095840454,-0.0003204117529094,5.089520709589128e-05,0.0003281715326011,-0.5576098561286926,0.1082502752542507,9.792798042297363
4.1503400802612305,0.0009612311259843,0.0011153083760291,0.0002355589531362,-0.5752659440040588,0.1245663166046154,9.78944492340088
4.154348134994507,-0.0015989472158253,0.0012239058269187,-9.65613871812822e-05,-0.575336217880249,0.124916970729829,9.808534622192385
4.158336162567139,0.0005258108722046,-0.0003763325512409,0.0009639477357268,-0.5714802145957947,0.1269156932830822,9.790504455566406
4.166355133056641,0.000640346261207,-0.0011183192254975,-0.0006360444240272,-0.5576074719429016,0.1159063577651989,9.791412353515623
4.17037296295166,0.0009558589663356,0.0013314475072547,-8.900044485926644e-05,-0.5494334697723389,0.110274374485017,9.763822555541992
4.178347110748291,0.0022324656601995,0.0002648561494424,0.0006511351093649,-0.5474702715873718,0.0974401459097874,9.751419067382812
4.186341285705566,0.0004248127806931,-0.0019658675882965,-0.0017064167186617,-0.5590277910232544,0.0772527381777775,9.769369125366213
4.190345287322998,0.0007441811612807,-5.121776484884333e-05,-0.0009518768638372,-0.5523105263710022,0.1130889505147945,9.77284049987793
4.194360017776489,0.0030849361792206,0.0027155340649187,-0.0004000011831521,-0.5547206997871399,0.1288627684116375,9.78337574005127
4.198341131210327,0.001920620095916,-0.001424839021638,-0.002444117097184,-0.5504487156867981,0.1288124918937695,9.798612594604492
4.206341028213501,-0.0026644344907253,0.0011149949859827,0.0002190545201301,-0.5566549301147461,0.0953812450170528,9.785168647766112
4.214344024658203,-0.0001044229138642,0.0009046687628142,-9.684637188911447e-05,-0.5470324754714966,0.1044946014881146,9.772337913513184
4.218341112136841,0.0006388600450009,0.0002639085287228,0.0004331823438405,-0.5585403442382812,0.0901438519358646,9.776070594787598
4.222352981567383,0.0001003713914542,0.0011077375384047,0.0007564048282802,-0.5661441683769226,0.1068681851029408,9.780885696411133
4.230348110198975,-0.0001097070780815,0.0003682367096189,0.0002176007255911,-0.5604982376098633,0.1124773323535931,9.811319351196287
4.23836612701416,0.0010533671593293,-0.0014435559278354,2.508983016014276e-06,-0.5576481819152832,0.1001355350017559,9.79509449005127
4.24234414100647,0.0001115297418436,-0.0006897252751514,-0.0007421276532113,-0.5542595982551575,0.0919708833098423,9.798434257507324
4.246458053588867,0.0010637176455929,-0.0001621761766728,-0.0004286104813218,-0.5600226521492004,0.0953863412141811,9.786638259887695
4.250353097915649,0.0009555945871397,0.0018574622226879,0.0005487734451889,-0.5504005551338196,0.1040398404002201,9.769972801208496
4.254380941390991,-0.0005302552017383,-0.000580586027354,-0.0007430426776409,-0.5547284483909607,0.1039822995662701,9.788958549499512
4.26234769821167,-0.0006408224580809,-0.0006972403498366,0.0009586163796484,-0.5418531894683838,0.1086526066064846,9.812763214111328
4.26643967628479,-0.0005340737407095,-0.000163912132848,0.0005363682284951,-0.5538120269775391,0.1124841794371617,9.811809539794922
4.274353742599487,0.00372119480744,0.0031338315457105,-0.0004051141440868,-0.5648375749588013,0.1029039695858967,9.8108549118042
4.278372764587402,0.0030863336287438,0.0018597888993099,0.0017254571430385,-0.5561480522155762,0.1269766837358486,9.773890495300291
4.286353588104248,0.001918721362017,-0.0004799904418177,0.0002174074761569,-0.5661383271217346,0.1228298917412769,9.743898391723633
4.290347576141357,0.0025557191111147,-0.0011195981642231,-0.0003156499005854,-0.5441742539405823,0.1151193380355846,9.760010719299316
4.294347763061523,0.0012652871664613,-0.0016622284892946,0.0026506870053708,-0.5489563345909119,0.1073521077632916,9.7789945602417
4.3031487464904785,0.0011712634004652,-0.0006898809224367,-0.0009544002823531,-0.5566606521606445,0.103487364947797,9.791326522827148
4.307161569595337,-1.5865807654336097e-06,-0.001969140721485,-4.905276000499484e-06,-0.5690847635269165,0.1116254180669796,9.78943920135498
4.315142631530762,-4.86077624373138e-07,0.0016459895996376,-0.0002006031572818,-0.5528045892715454,0.1126704812049877,9.76811981201172
4.327972888946533,-0.0021298904903233,0.0005851492751389,0.0004307026974856,-0.5422289967536926,0.1170608997344982,9.750994682312012
4.331964731216431,-0.0009540476603433,-0.0016381670720875,-0.0027716178447008,-0.5547530055046082,0.1058528870344173,9.797510147094728
4.3359534740448,0.0002063415013253,-0.0013329870998859,0.0007456508465111,-0.5447045564651489,0.1158737912774098,9.802834510803224
4.339953660964966,0.002874803263694,0.0001661058195168,-0.0014824070967733,-0.5614034533500671,0.1098257899284374,9.766167640686035
4.3479437828063965,0.0009542777552269,-0.0013435512082651,0.0024490775540471,-0.5571140050888062,0.1231467947363865,9.781904220581056
4.355972766876221,0.0026600966230034,-0.001862418372184,-0.0002132062800228,-0.5571362376213074,0.1164117678999912,9.789945602416992
4.363960266113281,0.0018099561566486,-0.0004768422513734,-0.000740404240787,-0.554755449295044,0.1106722354888928,9.78896713256836
4.3719775676727295,-0.0010520735522732,-0.0004820548929274,-0.001698394306004,-0.5614145994186401,0.1078835725784313,9.771844863891602
4.379985570907593,-0.0005352700827643,-0.0006994461873546,0.0015952456742525,-0.5624333024024963,0.1081950441002857,9.80984878540039
4.3879475593566895,-0.000319039914757,-0.000373552495148,0.0001041302457451,-0.5466120839118958,0.1015923768281948,9.789406776428224
4.3919596672058105,0.0002087024331558,-0.0001675772073213,0.0011737076565623,-0.55376797914505,0.1030322089791309,9.785600662231444
4.395965576171875,-0.0015913043171167,0.0010165948187932,-0.0007360628806054,-0.5652573108673096,0.0982400625944149,9.79269790649414
4.399947643280029,0.0020061924587935,0.0008087628521025,-0.0012573883868753,-0.5739315152168274,0.1058477610349667,9.788887977600098
4.403965473175049,0.0003232073504477,6.121140904724583e-05,-0.0011629448272287,-0.5623564124107361,0.1229838132858288,9.797858238220217
4.407959699630737,-2.539687557145953e-06,0.0019577494822442,0.000976878684014,-0.5580319762229919,0.1048670113086712,9.797743797302246
4.412012577056885,0.0001053217420121,-5.423172842711206e-05,0.0003245892003178,-0.5518853664398193,0.0837508067488682,9.811908721923828
4.416081666946411,0.0004230901249684,0.0007982546230778,-0.0005172444507479,-0.5638173818588257,0.0946927964687359,9.817767143249512
4.4199604988098145,-0.0019189945887774,-0.0008046868024393,0.0012805573642253,-0.538432776927948,0.1014619320631039,9.803508758544922
4.4239606857299805,0.0005264998180791,-0.001867615734227,0.0005310201086103,-0.5398774743080139,0.0938767194747936,9.79206371307373
4.4279625415802,-0.0007539162179455,-0.0010128734866157,-0.0003106771036982,-0.5498705506324768,0.1129874959588062,9.784807205200195
4.435974597930908,0.0007399597088806,-0.0020878794603049,0.0026661944575607,-0.541727602481842,0.0956923365592968,9.791889190673828
4.440008878707886,0.0008495328365825,-0.0007989328005351,0.001611006911844,-0.5460474491119385,0.0952287018299114,9.793252944946287
4.443959474563599,-0.0005437702639028,0.0008879684610292,0.0027794972993433,-0.5445539355278015,0.1140253841876995,9.768731117248535
4.4480695724487305,-0.0006399985286407,-0.0008004907285794,-9.98075120151042e-05,-0.5498174428939819,0.1215318441391003,9.790111541748049
4.45197868347168,-0.00159228220582,-0.0007997384527698,-0.0001002508215606,-0.5584491491317749,0.1148512139916431,9.786263465881348
4.4599668979644775,-0.0005337409675121,0.0006894593825563,0.0006541316397488,-0.5594425797462463,0.1085858196020138,9.799532890319824
4.467989921569824,0.0009566010558046,-0.0001622253039386,0.000546408817172,-0.5440884828567505,0.1044333502650272,9.766754150390623
4.475987911224365,0.0011679523158818,-0.0015496052801609,0.0010691848583519,-0.5641940236091614,0.1177883446216595,9.77150058746338
4.483973979949951,6.337111699394882e-06,-0.0007834204589016,-0.0028603996615856,-0.5546327829360962,0.1182007640600216,9.793407440185549
4.491988897323608,0.0006296909996308,0.0003689408767968,0.0007596570067107,-0.5655964612960815,0.1005329340696346,9.775300979614258
4.499969005584717,-0.0017065344145521,-0.0004860241024289,0.0019234400242567,-0.556550920009613,0.0938374847173702,9.78238296508789
4.503955125808716,-0.0009584776125848,0.0009084533667191,0.0006493576802313,-0.5532180070877075,0.1034136191010487,9.783402442932127
4.507970094680786,0.001061700633727,-0.0009036624105647,0.0002245865762233,-0.5426788330078125,0.1038838922977459,9.781963348388672
4.512001276016235,0.0004302380257286,0.000803843839094,-0.0005278657190501,-0.5613311529159546,0.0980913862586033,9.800860404968262
4.515964984893799,-0.0008512067142874,0.0001572270994074,0.0007556499913334,-0.5642513036727905,0.1061414480209362,9.81281566619873
